
time,ax,ay,az,wx,wy,wz,
0.002,0.71,-0.16,0.23,-0.50,-0.78,-0.32,
0.003,0.71,-0.16,0.23,-0.47,-0.72,-0.38,
0.004,0.57,-0.04,0.17,-0.47,-0.72,-0.38,
0.004,0.57,-0.04,0.17,-0.45,-0.64,-0.45,
0.005,0.44,0.06,0.13,-0.45,-0.64,-0.45,
0.005,0.44,0.06,0.13,-0.43,-0.57,-0.50,
0.012,0.24,0.12,-0.04,-0.43,-0.57,-0.50,
0.013,0.24,0.12,-0.04,-0.41,-0.51,-0.55,
0.015,0.24,0.12,-0.04,-0.40,-0.44,-0.59,
0.015,-0.02,0.14,-0.28,-0.40,-0.44,-0.59,
0.019,-0.33,0.12,-0.57,-0.40,-0.44,-0.59,
0.019,-0.33,0.12,-0.57,-0.40,-0.37,-0.62,
0.031,-0.33,0.12,-0.57,-0.43,-0.31,-0.65,
0.031,-0.59,0.04,-0.85,-0.43,-0.31,-0.65,
0.032,-0.59,0.04,-0.85,-0.47,-0.27,-0.67,
0.032,-0.86,0.07,-1.07,-0.47,-0.27,-0.67,
0.033,-1.18,0.01,-1.19,-0.47,-0.27,-0.67,
0.033,-1.18,0.01,-1.19,-0.53,-0.23,-0.67,
0.105,-1.18,0.01,-1.19,-0.60,-0.22,-0.65,
0.106,-1.39,-0.01,-1.20,-0.60,-0.22,-0.65,
0.106,-1.39,-0.01,-1.20,-0.66,-0.24,-0.63,
0.106,-1.54,-0.03,-1.04,-0.66,-0.24,-0.63,
0.107,-1.54,-0.03,-1.04,-0.71,-0.27,-0.60,
0.107,-1.53,-0.05,-0.80,-0.71,-0.27,-0.60,
0.107,-1.47,-0.12,-0.46,-0.71,-0.27,-0.60,
0.108,-1.47,-0.12,-0.46,-0.75,-0.31,-0.56,
0.108,-1.47,-0.12,-0.46,-0.76,-0.36,-0.53,
0.109,-1.47,-0.22,-0.16,-0.76,-0.36,-0.53,
0.109,-1.45,-0.29,0.23,-0.76,-0.36,-0.53,
0.109,-1.45,-0.29,0.23,-0.77,-0.41,-0.49,
0.11,-1.45,-0.29,0.23,-0.76,-0.45,-0.45,
0.11,-1.47,-0.34,0.62,-0.76,-0.45,-0.45,
0.11,-1.43,-0.38,1.02,-0.76,-0.45,-0.45,
0.111,-1.43,-0.38,1.02,-0.72,-0.49,-0.42,
0.111,-1.40,-0.41,1.26,-0.72,-0.49,-0.42,
0.112,-1.40,-0.41,1.26,-0.67,-0.53,-0.37,
0.112,-1.31,-0.37,1.38,-0.67,-0.53,-0.37,
0.112,-1.31,-0.37,1.38,-0.60,-0.59,-0.33,
0.113,-1.30,-0.32,1.47,-0.60,-0.59,-0.33,
0.113,-1.30,-0.32,1.47,-0.50,-0.65,-0.29,
0.113,-1.19,-0.28,1.60,-0.50,-0.65,-0.29,
0.114,-1.19,-0.28,1.60,-0.40,-0.71,-0.26,
0.114,-1.03,-0.26,1.75,-0.40,-0.71,-0.26,
0.114,-1.03,-0.26,1.75,-0.30,-0.73,-0.22,
0.115,-0.90,-0.25,1.70,-0.30,-0.73,-0.22,
0.115,-0.90,-0.25,1.70,-0.19,-0.75,-0.19,
0.116,-0.90,-0.25,1.70,-0.07,-0.76,-0.17,
0.116,-0.85,-0.24,1.57,-0.07,-0.76,-0.17,
0.116,-0.85,-0.24,1.57,0.05,-0.76,-0.15,
0.117,-0.93,-0.23,1.41,0.05,-0.76,-0.15,
0.117,-1.02,-0.21,1.16,0.05,-0.76,-0.15,
0.117,-1.02,-0.21,1.16,0.15,-0.76,-0.12,
0.135,-1.02,-0.21,1.16,0.25,-0.77,-0.10,
0.135,-1.06,-0.15,0.83,0.25,-0.77,-0.10,
0.136,-1.08,-0.03,0.41,0.25,-0.77,-0.10,
0.136,-1.08,-0.03,0.41,0.32,-0.77,-0.07,
0.136,-1.08,-0.03,0.41,0.39,-0.79,-0.05,
0.137,-1.11,0.11,-0.01,0.39,-0.79,-0.05,
0.137,-1.17,0.28,-0.43,0.39,-0.79,-0.05,
0.137,-1.17,0.28,-0.43,0.44,-0.81,-0.03,
0.185,-1.27,0.40,-0.88,0.44,-0.81,-0.03,
0.186,-1.27,0.40,-0.88,0.47,-0.85,-0.01,
0.187,-1.27,0.40,-0.88,0.48,-0.90,-0.01,
0.187,-1.36,0.46,-1.34,0.48,-0.90,-0.01,
0.188,-1.44,0.55,-1.75,0.48,-0.90,-0.01,
0.189,-1.44,0.55,-1.75,0.48,-0.96,0.00,
0.19,-1.44,0.55,-1.75,0.45,-1.02,0.02,
0.19,-1.16,0.82,-1.89,0.45,-1.02,0.02,
0.19,-1.16,0.82,-1.89,0.42,-1.12,0.04,
0.191,-1.15,0.91,-2.05,0.42,-1.12,0.04,
0.192,-1.48,0.69,-2.34,0.42,-1.12,0.04,
0.192,-1.48,0.69,-2.34,0.39,-1.23,0.07,
0.192,-1.46,0.62,-2.62,0.39,-1.23,0.07,
0.193,-1.46,0.62,-2.62,0.35,-1.33,0.08,
0.193,-1.44,0.61,-2.64,0.35,-1.33,0.08,
0.194,-1.44,0.61,-2.64,0.30,-1.39,0.08,
0.194,-0.96,0.59,-2.65,0.30,-1.39,0.08,
0.195,-0.96,0.59,-2.65,0.24,-1.41,0.08,
0.195,-0.02,0.71,-2.95,0.24,-1.41,0.08,
0.195,-0.02,0.71,-2.95,0.18,-1.45,0.08,
0.196,-0.02,0.71,-2.95,0.11,-1.58,0.06,
0.196,-0.36,0.97,-2.45,0.11,-1.58,0.06,
0.197,-0.36,0.97,-2.45,0.08,-1.67,0.03,
0.197,-1.15,1.10,-1.81,0.08,-1.67,0.03,
0.204,-1.15,1.10,-1.81,0.08,-1.73,0.02,
0.204,-1.72,0.99,-1.43,0.08,-1.73,0.02,
0.205,-1.97,0.67,-1.43,0.08,-1.73,0.02,
0.205,-1.97,0.67,-1.43,0.07,-1.76,0.01,
0.216,-2.11,0.39,-1.52,0.07,-1.76,0.01,
0.217,-2.11,0.39,-1.52,0.03,-1.78,0.04,
0.217,-2.11,0.39,-1.52,-0.02,-1.81,0.09,
0.217,-2.14,0.24,-1.40,-0.02,-1.81,0.09,
0.218,-2.14,0.24,-1.40,-0.07,-1.83,0.17,
0.218,-2.09,0.18,-1.10,-0.07,-1.83,0.17,
0.351,-1.88,0.27,-0.54,-0.07,-1.83,0.17,
0.353,-1.88,0.27,-0.54,-0.11,-1.79,0.24,
0.354,-1.88,0.27,-0.54,-0.11,-1.70,0.29,
0.356,-1.88,0.27,-0.54,-0.09,-1.55,0.31,
0.357,-1.50,0.38,0.03,-0.09,-1.55,0.31,
0.358,-1.14,0.41,0.33,-0.09,-1.55,0.31,
0.413,-1.14,0.41,0.33,-0.06,-1.38,0.30,
0.414,-0.91,0.33,0.59,-0.06,-1.38,0.30,
0.414,-1.14,-0.36,0.52,-0.06,-1.38,0.30,
0.414,-1.14,-0.36,0.52,-0.00,-1.25,0.30,
0.415,-1.04,-0.06,0.79,-0.00,-1.25,0.30,
0.415,-1.04,-0.06,0.79,0.12,-1.40,0.34,
0.416,-0.82,0.38,0.89,0.12,-1.40,0.34,
0.416,-0.82,0.38,0.89,0.26,-1.60,0.37,
0.416,-0.56,0.90,1.24,0.26,-1.60,0.37,
0.417,-0.56,0.90,1.24,0.36,-1.71,0.34,
0.417,-0.56,0.90,1.24,0.46,-1.67,0.29,
0.417,-0.40,1.13,1.53,0.46,-1.67,0.29,
0.418,-0.40,1.13,1.53,0.57,-1.55,0.24,
0.418,-0.29,0.99,1.41,0.57,-1.55,0.24,
0.418,-0.29,0.99,1.41,0.66,-1.41,0.21,
0.419,-0.14,0.58,0.84,0.66,-1.41,0.21,
0.419,-0.14,0.58,0.84,0.73,-1.26,0.20,
0.42,0.00,0.18,0.03,0.73,-1.26,0.20,
0.42,0.13,-0.10,-0.80,0.73,-1.26,0.20,
0.42,0.13,-0.10,-0.80,0.76,-1.14,0.19,
0.42,0.07,-0.15,-1.52,0.76,-1.14,0.19,
0.421,0.07,-0.15,-1.52,0.77,-1.06,0.18,
0.421,-0.23,0.01,-2.05,0.77,-1.06,0.18,
0.422,-0.23,0.01,-2.05,0.76,-1.05,0.15,
0.422,-0.81,0.22,-2.39,0.76,-1.05,0.15,
0.422,-0.81,0.22,-2.39,0.76,-1.09,0.11,
0.423,-0.81,0.22,-2.39,0.77,-1.18,0.08,
0.423,-1.32,0.41,-2.81,0.77,-1.18,0.08,
0.424,-1.32,0.41,-2.81,0.77,-1.31,0.07,
0.424,-1.81,0.53,-3.22,0.77,-1.31,0.07,
0.424,-2.31,0.62,-3.64,0.77,-1.31,0.07,
0.425,-2.31,0.62,-3.64,0.75,-1.49,0.08,
0.425,-2.54,0.58,-4.06,0.75,-1.49,0.08,
0.425,-2.54,0.58,-4.06,0.70,-1.72,0.10,
0.426,-1.98,0.20,-5.11,0.70,-1.72,0.10,
0.426,-1.98,0.20,-5.11,0.61,-1.98,0.13,
0.426,-2.86,1.07,-4.06,0.61,-1.98,0.13,
0.427,-2.86,1.07,-4.06,0.47,-2.25,0.14,
0.427,-3.72,1.74,-3.56,0.47,-2.25,0.14,
0.428,-3.72,1.74,-3.56,0.35,-2.46,0.17,
0.428,-3.72,1.74,-3.56,0.24,-2.60,0.21,
0.428,-3.66,1.98,-3.54,0.24,-2.60,0.21,
0.429,-3.18,2.46,0.10,0.24,-2.60,0.21,
0.429,-3.18,2.46,0.10,0.09,-2.62,0.25,
0.429,-3.18,2.46,0.10,-0.05,-2.12,0.29,
0.43,-2.18,2.85,0.68,-0.05,-2.12,0.29,
0.43,-2.18,2.85,0.68,-0.29,-1.54,0.31,
0.431,-2.29,2.99,-0.32,-0.29,-1.54,0.31,
0.431,-1.66,3.01,0.62,-0.29,-1.54,0.31,
0.431,-1.66,3.01,0.62,-0.63,-1.33,0.37,
0.432,-1.66,3.01,0.62,-0.85,-1.36,0.42,
0.432,-0.81,3.22,2.79,-0.85,-1.36,0.42,
0.433,-0.81,3.22,2.79,-0.88,-1.45,0.41,
0.433,-0.24,3.31,4.43,-0.88,-1.45,0.41,
0.433,0.18,3.34,5.42,-0.88,-1.45,0.41,
0.434,0.18,3.34,5.42,-0.84,-1.48,0.33,
0.434,0.18,3.34,5.42,-0.83,-1.47,0.22,
0.434,0.68,3.29,6.08,-0.83,-1.47,0.22,
0.435,0.68,3.29,6.08,-0.87,-1.46,0.12,
0.435,1.17,3.18,6.83,-0.87,-1.46,0.12,
0.435,1.17,3.18,6.83,-0.89,-1.41,0.03,
0.436,2.46,2.74,6.67,-0.89,-1.41,0.03,
0.436,2.46,2.74,6.67,-0.90,-1.34,-0.12,
0.437,2.56,3.31,7.90,-0.90,-1.34,-0.12,
0.437,2.32,3.96,8.61,-0.90,-1.34,-0.12,
0.437,2.32,3.96,8.61,-0.87,-1.20,-0.33,
0.438,2.32,3.96,8.61,-0.82,-1.06,-0.58,
0.438,2.29,4.29,8.56,-0.82,-1.06,-0.58,
0.439,2.29,4.29,8.56,-0.77,-0.94,-0.81,
0.439,1.48,4.74,9.46,-0.77,-0.94,-0.81,
0.439,0.84,4.46,9.27,-0.77,-0.94,-0.81,
0.44,0.84,4.46,9.27,-0.71,-0.83,-1.00,
0.44,-0.50,4.58,10.01,-0.71,-0.83,-1.00,
0.441,-0.50,4.58,10.01,-0.65,-0.72,-1.17,
0.441,-1.82,4.43,10.28,-0.65,-0.72,-1.17,
0.442,-1.82,4.43,10.28,-0.57,-0.56,-1.31,
0.442,-3.09,4.28,10.39,-0.57,-0.56,-1.31,
0.443,-3.09,4.28,10.39,-0.48,-0.39,-1.40,
0.443,-3.09,4.28,10.39,-0.36,-0.21,-1.44,
0.443,-4.27,4.07,10.38,-0.36,-0.21,-1.44,
0.444,-5.39,3.99,10.74,-0.36,-0.21,-1.44,
0.444,-5.39,3.99,10.74,-0.24,-0.06,-1.42,
0.445,-6.17,3.58,10.41,-0.24,-0.06,-1.42,
0.445,-6.17,3.58,10.41,-0.10,0.10,-1.33,
0.446,-6.17,3.58,10.41,0.05,0.24,-1.20,
0.446,-6.82,3.37,10.47,0.05,0.24,-1.20,
0.447,-7.11,2.91,10.22,0.05,0.24,-1.20,
0.447,-7.11,2.91,10.22,0.21,0.35,-1.04,
0.638,-7.11,2.91,10.22,0.37,0.41,-0.87,
0.638,-7.08,2.49,9.91,0.37,0.41,-0.87,
0.639,-7.08,2.49,9.91,0.53,0.45,-0.70,
0.639,-6.64,2.08,9.65,0.53,0.45,-0.70,
0.64,-6.10,1.92,9.63,0.53,0.45,-0.70,
0.64,-6.10,1.92,9.63,0.68,0.46,-0.52,
0.64,-6.10,1.92,9.63,0.83,0.47,-0.37,
0.641,-5.27,1.86,9.83,0.83,0.47,-0.37,
0.641,-4.29,1.68,10.05,0.83,0.47,-0.37,
0.642,-4.29,1.68,10.05,0.99,0.51,-0.24,
0.642,-3.31,1.47,10.42,0.99,0.51,-0.24,
0.642,-3.31,1.47,10.42,1.16,0.56,-0.14,
0.672,-2.38,1.19,10.78,1.16,0.56,-0.14,
0.673,-2.38,1.19,10.78,1.36,0.63,-0.08,
0.673,-1.61,0.84,11.11,1.36,0.63,-0.08,
0.673,-1.61,0.84,11.11,1.57,0.69,-0.05,
0.674,-0.96,0.50,11.39,1.57,0.69,-0.05,
0.674,-0.96,0.50,11.39,1.82,0.74,-0.04,
0.674,-0.45,0.19,11.45,1.82,0.74,-0.04,
0.675,-0.45,0.19,11.45,2.09,0.77,-0.04,
0.675,-0.45,0.19,11.45,2.38,0.79,-0.07,
0.676,-0.04,-0.16,11.16,2.38,0.79,-0.07,
0.676,0.24,-0.55,10.56,2.38,0.79,-0.07,
0.676,0.24,-0.55,10.56,2.66,0.82,-0.09,
0.677,0.51,-0.98,9.62,2.66,0.82,-0.09,
0.677,0.51,-0.98,9.62,2.93,0.85,-0.12,
0.677,0.51,-0.98,9.62,3.17,0.87,-0.14,
0.677,0.70,-1.38,8.69,3.17,0.87,-0.14,
0.678,0.64,-1.74,9.30,3.17,0.87,-0.14,
0.678,0.64,-1.74,9.30,3.40,0.81,-0.16,
0.678,0.64,-1.74,9.30,3.74,0.50,-0.17,
0.679,0.60,-1.91,7.76,3.74,0.50,-0.17,
0.679,1.04,-1.86,5.75,3.74,0.50,-0.17,
0.679,1.04,-1.86,5.75,3.99,0.24,-0.17,
0.68,1.26,-2.18,3.53,3.99,0.24,-0.17,
0.68,1.26,-2.18,3.53,4.10,0.09,-0.18,
0.68,1.26,-2.18,3.53,4.02,0.20,-0.20,
0.68,1.52,-2.80,1.52,4.02,0.20,-0.20,
0.681,1.52,-2.80,1.52,3.81,0.60,-0.22,
0.681,1.94,-3.64,0.99,3.81,0.60,-0.22,
0.681,2.25,-4.35,1.58,3.81,0.60,-0.22,
0.682,2.25,-4.35,1.58,3.60,1.05,-0.25,
0.682,2.26,-4.50,1.62,3.60,1.05,-0.25,
0.682,2.26,-4.50,1.62,3.51,1.37,-0.28,
0.683,2.26,-4.50,1.62,3.46,1.53,-0.28,
0.683,2.10,-4.09,1.22,3.46,1.53,-0.28,
0.683,2.10,-4.09,1.22,3.41,1.59,-0.26,
0.683,1.91,-3.81,0.88,3.41,1.59,-0.26,
0.684,1.81,-3.92,0.63,3.41,1.59,-0.26,
0.684,1.81,-3.92,0.63,3.36,1.59,-0.22,
0.684,1.98,-4.19,0.07,3.36,1.59,-0.22,
0.684,1.98,-4.19,0.07,3.33,1.51,-0.17,
0.685,2.39,-4.41,-0.79,3.33,1.51,-0.17,
0.685,2.39,-4.41,-0.79,3.30,1.41,-0.12,
0.685,2.91,-4.58,-1.71,3.30,1.41,-0.12,
0.686,2.91,-4.58,-1.71,3.23,1.33,-0.08,
0.686,3.34,-4.78,-2.30,3.23,1.33,-0.08,
0.686,3.34,-4.78,-2.30,3.12,1.32,-0.05,
0.687,3.34,-4.78,-2.30,3.00,1.32,-0.04,
0.687,3.57,-4.90,-2.55,3.00,1.32,-0.04,
0.687,3.57,-4.90,-2.55,2.91,1.31,-0.03,
0.687,3.71,-4.91,-2.89,2.91,1.31,-0.03,
0.688,3.71,-4.91,-2.89,2.83,1.29,-0.02,
0.688,3.85,-4.68,-3.31,2.83,1.29,-0.02,
0.688,3.85,-4.68,-3.31,2.74,1.24,0.00,
0.688,4.07,-4.36,-3.73,2.74,1.24,0.00,
0.689,4.47,-3.96,-4.22,2.74,1.24,0.00,
0.689,4.47,-3.96,-4.22,2.65,1.19,0.02,
0.689,4.98,-3.62,-4.68,2.65,1.19,0.02,
0.69,4.98,-3.62,-4.68,2.55,1.12,0.03,
0.69,5.44,-3.38,-5.17,2.55,1.12,0.03,
0.69,5.44,-3.38,-5.17,2.46,1.05,0.02,
0.69,5.66,-3.23,-5.55,2.46,1.05,0.02,
0.691,5.66,-3.23,-5.55,2.37,0.99,0.00,
0.691,5.68,-3.14,-5.82,2.37,0.99,0.00,
0.691,5.68,-3.14,-5.82,2.30,0.90,-0.04,
0.692,5.68,-3.14,-5.82,2.23,0.81,-0.08,
0.692,5.48,-3.04,-6.10,2.23,0.81,-0.08,
0.692,5.14,-2.92,-6.38,2.23,0.81,-0.08,
0.693,5.14,-2.92,-6.38,2.17,0.69,-0.10,
0.693,4.94,-2.69,-6.65,2.17,0.69,-0.10,
0.693,4.94,-2.69,-6.65,2.11,0.57,-0.11,
0.693,4.86,-2.53,-6.93,2.11,0.57,-0.11,
0.694,4.86,-2.53,-6.93,2.06,0.44,-0.09,
0.694,4.86,-2.53,-6.93,2.02,0.32,-0.06,
0.694,4.88,-2.45,-7.31,2.02,0.32,-0.06,
0.695,4.93,-2.45,-7.61,2.02,0.32,-0.06,
0.695,4.93,-2.45,-7.61,1.97,0.21,-0.03,
0.695,5.04,-2.42,-7.96,1.97,0.21,-0.03,
0.695,5.04,-2.42,-7.96,1.92,0.10,0.01,
0.696,5.04,-2.42,-7.96,1.87,-0.00,0.04,
0.696,5.15,-2.40,-8.26,1.87,-0.00,0.04,
0.697,5.15,-2.40,-8.26,1.82,-0.09,0.07,
0.697,5.22,-2.33,-8.55,1.82,-0.09,0.07,
0.697,5.33,-2.20,-8.82,1.82,-0.09,0.07,
0.697,5.33,-2.20,-8.82,1.76,-0.17,0.09,
0.698,5.45,-2.06,-9.12,1.76,-0.17,0.09,
0.698,5.45,-2.06,-9.12,1.70,-0.25,0.11,
0.698,5.45,-2.06,-9.12,1.64,-0.35,0.13,
0.698,5.62,-1.95,-9.39,1.64,-0.35,0.13,
0.699,5.77,-1.89,-9.65,1.64,-0.35,0.13,
0.699,5.77,-1.89,-9.65,1.60,-0.49,0.16,
0.77,5.77,-1.89,-9.65,1.56,-0.65,0.18,
0.771,5.91,-1.82,-9.89,1.56,-0.65,0.18,
0.771,6.00,-1.78,-10.12,1.56,-0.65,0.18,
0.772,6.00,-1.78,-10.12,1.53,-0.83,0.21,
0.772,5.99,-1.73,-10.31,1.53,-0.83,0.21,
0.773,5.99,-1.73,-10.31,1.51,-1.01,0.25,
0.773,5.95,-1.65,-10.39,1.51,-1.01,0.25,
0.774,5.95,-1.65,-10.39,1.49,-1.22,0.30,
0.774,5.95,-1.65,-10.39,1.49,-1.45,0.36,
0.774,5.96,-1.49,-10.32,1.49,-1.45,0.36,
0.801,5.96,-1.49,-10.32,1.51,-1.69,0.44,
0.802,6.17,-1.28,-10.12,1.51,-1.69,0.44,
0.802,6.51,-1.12,-9.81,1.51,-1.69,0.44,
0.803,6.51,-1.12,-9.81,1.55,-1.95,0.52,
0.803,6.51,-1.12,-9.81,1.62,-2.21,0.60,
0.803,7.05,-1.12,-9.49,1.62,-2.21,0.60,
0.804,7.05,-1.12,-9.49,1.71,-2.48,0.67,
0.804,7.61,-1.20,-9.18,1.71,-2.48,0.67,
0.804,7.61,-1.20,-9.18,1.84,-2.76,0.73,
0.805,8.27,-1.34,-8.88,1.84,-2.76,0.73,
0.805,8.27,-1.34,-8.88,1.98,-3.03,0.77,
0.805,8.81,-1.53,-8.72,1.98,-3.03,0.77,
0.806,8.81,-1.53,-8.72,2.13,-3.30,0.80,
0.806,9.24,-1.82,-8.80,2.13,-3.30,0.80,
0.806,9.24,-1.82,-8.80,2.29,-3.53,0.83,
0.807,9.52,-2.11,-8.91,2.29,-3.53,0.83,
0.807,9.52,-2.11,-8.91,2.43,-3.75,0.86,
0.807,9.80,-2.46,-9.19,2.43,-3.75,0.86,
0.808,9.80,-2.46,-9.19,2.57,-3.94,0.90,
0.808,10.06,-2.86,-9.48,2.57,-3.94,0.90,
0.809,10.06,-2.86,-9.48,2.68,-4.12,0.95,
0.809,10.24,-3.32,-9.75,2.68,-4.12,0.95,
0.809,10.24,-3.32,-9.75,2.78,-4.27,1.01,
0.81,10.50,-3.85,-9.91,2.78,-4.27,1.01,
0.81,10.75,-4.40,-10.11,2.78,-4.27,1.01,
0.811,10.75,-4.40,-10.11,2.87,-4.41,1.08,
0.811,10.75,-4.40,-10.11,2.95,-4.54,1.16,
0.811,11.01,-4.87,-10.13,2.95,-4.54,1.16,
0.812,11.01,-4.87,-10.13,3.02,-4.67,1.25,
0.812,11.27,-5.22,-10.10,3.02,-4.67,1.25,
0.813,11.27,-5.22,-10.10,3.09,-4.78,1.33,
0.813,11.61,-5.51,-10.13,3.09,-4.78,1.33,
0.814,11.61,-5.51,-10.13,3.16,-4.89,1.42,
0.814,12.16,-5.73,-10.34,3.16,-4.89,1.42,
0.815,12.16,-5.73,-10.34,3.22,-4.99,1.50,
0.815,12.61,-5.89,-10.46,3.22,-4.99,1.50,
0.815,12.61,-5.89,-10.46,3.27,-5.08,1.57,
0.816,13.09,-6.05,-10.56,3.27,-5.08,1.57,
0.839,13.09,-6.05,-10.56,3.32,-5.14,1.63,
0.84,13.67,-6.29,-10.74,3.32,-5.14,1.63,
0.84,14.23,-6.56,-11.21,3.32,-5.14,1.63,
0.841,14.23,-6.56,-11.21,3.35,-5.20,1.67,
0.841,14.23,-6.56,-11.21,3.35,-5.24,1.70,
0.842,14.61,-6.87,-11.79,3.35,-5.24,1.70,
0.842,14.61,-6.87,-11.79,3.31,-5.27,1.72,
0.842,14.80,-7.11,-12.36,3.31,-5.27,1.72,
0.843,14.80,-7.11,-12.36,3.23,-5.28,1.73,
0.843,14.79,-7.31,-12.89,3.23,-5.28,1.73,
0.844,14.66,-7.48,-13.27,3.23,-5.28,1.73,
0.844,14.66,-7.48,-13.27,3.11,-5.30,1.77,
0.849,14.57,-7.67,-13.56,3.11,-5.30,1.77,
0.85,14.57,-7.67,-13.56,2.96,-5.31,1.82,
0.852,14.70,-7.94,-13.74,2.96,-5.31,1.82,
0.853,14.70,-7.94,-13.74,2.78,-5.33,1.91,
0.864,15.05,-8.31,-14.03,2.78,-5.33,1.91,
0.865,15.05,-8.31,-14.03,2.59,-5.36,2.02,
0.865,15.05,-8.31,-14.03,2.38,-5.39,2.15,
0.865,15.52,-8.69,-14.37,2.38,-5.39,2.15,
0.911,16.19,-8.77,-14.77,2.38,-5.39,2.15,
0.911,16.19,-8.77,-14.77,2.13,-5.43,2.27,
0.912,16.76,-8.72,-15.27,2.13,-5.43,2.27,
0.912,16.76,-8.72,-15.27,1.85,-5.49,2.36,
0.912,17.23,-8.79,-15.78,1.85,-5.49,2.36,
0.913,17.23,-8.79,-15.78,1.52,-5.56,2.43,
0.913,17.62,-9.18,-16.20,1.52,-5.56,2.43,
0.913,17.62,-9.18,-16.20,1.14,-5.64,2.50,
0.914,18.04,-9.61,-16.45,1.14,-5.64,2.50,
0.914,18.04,-9.61,-16.45,0.70,-5.75,2.56,
0.915,18.04,-9.61,-16.45,0.22,-5.86,2.63,
0.915,18.47,-10.03,-16.47,0.22,-5.86,2.63,
0.915,19.04,-10.53,-16.33,0.22,-5.86,2.63,
0.916,19.04,-10.53,-16.33,-0.29,-5.97,2.69,
0.916,19.75,-11.08,-15.83,-0.29,-5.97,2.69,
0.917,19.75,-11.08,-15.83,-0.84,-6.11,2.74,
0.917,20.56,-11.78,-15.06,-0.84,-6.11,2.74,
0.917,20.56,-11.78,-15.06,-1.40,-6.26,2.78,
0.918,21.46,-12.65,-13.92,-1.40,-6.26,2.78,
0.918,21.46,-12.65,-13.92,-1.97,-6.42,2.83,
0.919,21.46,-12.65,-13.92,-2.51,-6.62,2.87,
0.919,22.36,-13.55,-12.62,-2.51,-6.62,2.87,
0.92,23.26,-14.37,-10.97,-2.51,-6.62,2.87,
0.92,23.26,-14.37,-10.97,-3.02,-6.86,2.92,
0.925,24.12,-15.12,-9.15,-3.02,-6.86,2.92,
0.926,24.12,-15.12,-9.15,-3.50,-7.13,2.97,
0.937,24.12,-15.12,-9.15,-3.92,-7.44,3.03,
0.937,25.25,-15.82,-7.14,-3.92,-7.44,3.03,
0.938,25.25,-15.82,-7.14,-4.28,-7.79,3.09,
0.938,26.92,-16.45,-4.98,-4.28,-7.79,3.09,
0.942,26.92,-16.45,-4.98,-4.59,-8.17,3.14,
0.942,28.80,-16.98,-2.81,-4.59,-8.17,3.14,
0.962,30.75,-17.46,-0.63,-4.59,-8.17,3.14,
0.963,30.75,-17.46,-0.63,-4.84,-8.55,3.17,
0.964,30.75,-17.46,-0.63,-5.04,-8.91,3.16,
0.964,32.78,-17.84,1.59,-5.04,-8.91,3.16,
0.965,34.23,-18.22,3.80,-5.04,-8.91,3.16,
0.965,34.23,-18.22,3.80,-5.19,-9.24,3.12,
0.965,34.23,-18.22,3.80,-5.31,-9.49,3.05,
0.966,34.32,-18.63,6.18,-5.31,-9.49,3.05,
0.966,34.32,-18.63,6.18,-5.39,-9.65,2.94,
0.967,34.42,-19.04,8.66,-5.39,-9.65,2.94,
1.0,34.42,-19.04,8.66,-5.42,-9.67,2.81,
1.001,34.53,-19.36,11.16,-5.42,-9.67,2.81,
1.002,34.64,-19.58,13.48,-5.42,-9.67,2.81,
1.002,34.64,-19.58,13.48,-5.42,-9.53,2.65,
1.003,34.64,-19.58,13.48,-5.39,-9.26,2.49,
1.003,34.74,-19.51,15.33,-5.39,-9.26,2.49,
1.004,34.74,-19.51,15.33,-5.35,-8.89,2.33,
1.005,34.84,-19.21,16.69,-5.35,-8.89,2.33,
1.005,34.84,-19.21,16.69,-5.31,-8.47,2.21,
1.006,34.93,-18.86,17.56,-5.31,-8.47,2.21,
1.007,35.01,-18.66,17.96,-5.31,-8.47,2.21,
1.008,35.01,-18.66,17.96,-5.30,-8.05,2.14,
1.009,35.08,-18.59,18.16,-5.30,-8.05,2.14,
1.009,35.08,-18.59,18.16,-5.30,-7.68,2.11,
1.01,34.99,-18.50,18.30,-5.30,-7.68,2.11,
1.011,34.99,-18.50,18.30,-5.31,-7.42,2.11,
1.011,34.17,-18.34,18.59,-5.31,-7.42,2.11,
1.012,34.17,-18.34,18.59,-5.30,-7.30,2.10,
1.012,34.17,-18.34,18.59,-5.27,-7.34,2.08,
1.013,33.42,-17.96,18.84,-5.27,-7.34,2.08,
1.083,33.42,-17.96,18.84,-5.19,-7.55,2.06,
1.084,32.30,-17.43,19.03,-5.19,-7.55,2.06,
1.084,32.30,-17.43,19.03,-5.05,-7.95,2.04,
1.084,31.30,-17.11,19.31,-5.05,-7.95,2.04,
1.085,31.30,-17.11,19.31,-4.86,-8.48,2.04,
1.085,30.68,-17.93,18.96,-4.86,-8.48,2.04,
1.086,30.68,-17.93,18.96,-4.64,-9.09,2.07,
1.086,31.03,-18.08,19.12,-4.64,-9.09,2.07,
1.087,31.03,-18.08,19.12,-4.38,-9.70,2.09,
1.087,29.87,-16.05,20.01,-4.38,-9.70,2.09,
1.088,29.87,-16.05,20.01,-4.05,-10.18,2.14,
1.088,28.12,-13.77,21.56,-4.05,-10.18,2.14,
1.089,28.12,-13.77,21.56,-3.64,-10.57,2.30,
1.09,26.61,-12.71,22.17,-3.64,-10.57,2.30,
1.09,26.61,-12.71,22.17,-3.22,-10.94,2.57,
1.091,26.60,-12.61,21.52,-3.22,-10.94,2.57,
1.091,26.60,-12.61,21.52,-2.86,-11.20,2.87,
1.092,27.84,-12.42,19.51,-2.86,-11.20,2.87,
1.092,27.84,-12.42,19.51,-2.63,-11.26,3.11,
1.093,29.54,-11.52,17.18,-2.63,-11.26,3.11,
1.093,29.54,-11.52,17.18,-2.57,-11.07,3.24,
1.094,30.73,-10.18,14.99,-2.57,-11.07,3.24,
1.094,30.73,-10.18,14.99,-2.69,-10.67,3.28,
1.095,31.57,-8.76,13.05,-2.69,-10.67,3.28,
1.095,32.11,-7.52,11.74,-2.69,-10.67,3.28,
1.095,32.11,-7.52,11.74,-2.99,-10.11,3.26,
1.096,32.15,-6.52,11.40,-2.99,-10.11,3.26,
1.096,32.15,-6.52,11.40,-3.45,-9.45,3.16,
1.097,31.56,-5.88,11.71,-3.45,-9.45,3.16,
1.097,31.56,-5.88,11.71,-4.03,-8.69,2.99,
1.098,30.42,-5.52,12.37,-4.03,-8.69,2.99,
1.098,30.42,-5.52,12.37,-4.70,-7.82,2.78,
1.098,29.07,-5.59,13.47,-4.70,-7.82,2.78,
1.099,29.07,-5.59,13.47,-5.44,-6.89,2.56,
1.153,27.67,-6.16,15.19,-5.44,-6.89,2.56,
1.153,27.67,-6.16,15.19,-6.21,-5.90,2.34,
1.153,26.35,-7.03,17.60,-6.21,-5.90,2.34,
1.154,26.35,-7.03,17.60,-6.94,-4.90,2.11,
1.154,26.35,-7.03,17.60,-7.57,-3.93,1.88,
1.155,24.52,-7.85,20.79,-7.57,-3.93,1.88,
1.155,22.40,-8.28,24.61,-7.57,-3.93,1.88,
1.155,22.40,-8.28,24.61,-8.05,-3.05,1.66,
1.156,22.40,-8.28,24.61,-8.32,-2.32,1.43,
1.156,20.22,-8.36,28.73,-8.32,-2.32,1.43,
1.156,17.98,-8.25,32.72,-8.32,-2.32,1.43,
1.157,17.98,-8.25,32.72,-8.34,-1.82,1.22,
1.157,16.08,-8.03,36.23,-8.34,-1.82,1.22,
1.158,16.08,-8.03,36.23,-8.10,-1.56,1.03,
1.158,14.41,-7.47,38.56,-8.10,-1.56,1.03,
1.158,14.41,-7.47,38.56,-7.61,-1.51,0.85,
1.159,12.40,-6.78,39.76,-7.61,-1.51,0.85,
1.159,12.40,-6.78,39.76,-6.90,-1.61,0.71,
1.16,10.54,-5.83,39.93,-6.90,-1.61,0.71,
1.16,10.54,-5.83,39.93,-6.07,-1.82,0.60,
1.16,10.54,-5.83,39.93,-5.18,-2.09,0.54,
1.161,9.02,-4.81,39.14,-5.18,-2.09,0.54,
1.161,9.02,-4.81,39.14,-4.28,-2.36,0.51,
1.161,7.59,-3.79,37.51,-4.28,-2.36,0.51,
1.162,7.59,-3.79,37.51,-3.43,-2.57,0.52,
1.162,6.22,-2.81,35.14,-3.43,-2.57,0.52,
1.175,6.22,-2.81,35.14,-2.67,-2.71,0.55,
1.176,5.19,-1.88,32.31,-2.67,-2.71,0.55,
1.177,5.19,-1.88,32.31,-2.05,-2.78,0.60,
1.177,4.48,-0.98,29.30,-2.05,-2.78,0.60,
1.177,4.48,-0.98,29.30,-1.57,-2.75,0.67,
1.178,4.11,-0.05,26.36,-1.57,-2.75,0.67,
1.185,3.89,0.70,23.59,-1.57,-2.75,0.67,
1.186,3.89,0.70,23.59,-1.24,-2.63,0.73,
1.186,3.89,0.70,23.59,-1.04,-2.43,0.76,
1.187,3.66,1.47,21.12,-1.04,-2.43,0.76,
1.188,3.63,2.14,19.00,-1.04,-2.43,0.76,
1.188,3.63,2.14,19.00,-0.96,-2.17,0.76,
1.202,3.71,2.69,17.25,-0.96,-2.17,0.76,
1.203,3.71,2.69,17.25,-0.97,-1.88,0.74,
1.203,3.71,2.69,17.25,-1.05,-1.57,0.68,
1.203,3.82,3.18,15.84,-1.05,-1.57,0.68,
1.204,3.82,3.18,15.84,-1.16,-1.26,0.59,
1.204,3.92,3.63,14.71,-1.16,-1.26,0.59,
1.219,3.92,3.63,14.71,-1.30,-0.97,0.46,
1.22,3.95,4.01,13.84,-1.30,-0.97,0.46,
1.254,3.65,4.11,13.12,-1.30,-0.97,0.46,
1.255,3.65,4.11,13.12,-1.45,-0.69,0.31,
1.255,3.01,4.15,12.47,-1.45,-0.69,0.31,
1.256,3.01,4.15,12.47,-1.59,-0.46,0.14,
1.258,3.01,4.15,12.47,-1.73,-0.24,-0.01,
1.258,2.02,4.03,12.00,-1.73,-0.24,-0.01,
1.259,2.02,4.03,12.00,-1.86,-0.05,-0.14,
1.26,0.93,3.86,11.62,-1.86,-0.05,-0.14,
1.26,-0.09,3.57,11.32,-1.86,-0.05,-0.14,
1.261,-0.09,3.57,11.32,-1.98,0.11,-0.23,
1.261,-1.01,3.17,11.02,-1.98,0.11,-0.23,
1.262,-1.01,3.17,11.02,-2.07,0.24,-0.29,
1.262,-1.84,2.81,10.55,-2.07,0.24,-0.29,
1.263,-1.84,2.81,10.55,-2.15,0.35,-0.32,
1.263,-1.84,2.81,10.55,-2.22,0.43,-0.32,
1.264,-2.53,2.48,10.08,-2.22,0.43,-0.32,
1.264,-3.05,2.19,9.59,-2.22,0.43,-0.32,
1.264,-3.05,2.19,9.59,-2.29,0.47,-0.29,
1.265,-3.05,2.19,9.59,-2.35,0.49,-0.25,
1.265,-3.30,1.88,9.38,-2.35,0.49,-0.25,
1.266,-3.25,1.60,9.55,-2.35,0.49,-0.25,
1.266,-3.25,1.60,9.55,-2.41,0.49,-0.19,
1.267,-3.25,1.60,9.55,-2.44,0.49,-0.13,
1.267,-3.01,1.37,10.13,-2.44,0.49,-0.13,
1.288,-3.01,1.37,10.13,-2.42,0.50,-0.07,
1.289,-2.53,1.14,10.89,-2.42,0.50,-0.07,
1.289,-2.53,1.14,10.89,-2.35,0.53,-0.03,
1.29,-2.08,0.96,11.72,-2.35,0.53,-0.03,
1.29,-2.08,0.96,11.72,-2.22,0.59,0.00,
1.291,-1.63,0.79,12.56,-2.22,0.59,0.00,
1.291,-1.63,0.79,12.56,-2.03,0.65,0.03,
1.292,-1.15,0.72,13.11,-2.03,0.65,0.03,
1.292,-1.15,0.72,13.11,-1.80,0.73,0.04,
1.292,-0.70,0.68,13.42,-1.80,0.73,0.04,
1.298,-0.44,0.62,13.32,-1.80,0.73,0.04,
1.299,-0.44,0.62,13.32,-1.52,0.80,0.03,
1.304,-0.44,0.62,13.32,-1.22,0.85,0.01,
1.305,-0.37,0.59,12.81,-1.22,0.85,0.01,
1.314,-0.37,0.59,12.81,-0.93,0.88,-0.01,
1.314,-0.42,0.64,12.14,-0.93,0.88,-0.01,
1.315,-0.42,0.64,12.14,-0.66,0.89,-0.03,
1.315,-0.46,0.66,11.30,-0.66,0.89,-0.03,
1.32,-0.49,0.73,10.42,-0.66,0.89,-0.03,
1.321,-0.49,0.73,10.42,-0.41,0.91,-0.05,
1.321,-0.49,0.73,10.42,-0.19,0.91,-0.07,
1.322,-0.55,0.72,9.40,-0.19,0.91,-0.07,
1.333,-0.55,0.72,9.40,-0.00,0.92,-0.07,
1.333,-0.58,0.68,8.33,-0.00,0.92,-0.07,
1.334,-0.56,0.68,7.30,-0.00,0.92,-0.07,
1.334,-0.56,0.68,7.30,0.15,0.92,-0.07,
1.337,-0.55,0.68,6.35,0.15,0.92,-0.07,
1.338,-0.55,0.68,6.35,0.27,0.92,-0.06,
1.34,-0.55,0.68,6.35,0.37,0.93,-0.05,
1.341,-0.49,0.66,5.43,0.37,0.93,-0.05,
1.489,-0.49,0.66,5.43,0.43,0.94,-0.04,
1.49,-0.38,0.67,4.55,0.43,0.94,-0.04,
1.491,-0.38,0.67,4.55,0.47,0.98,-0.02,
1.492,-0.23,0.62,3.74,0.47,0.98,-0.02,
1.492,-0.23,0.62,3.74,0.49,1.02,-0.01,
1.493,-0.03,0.50,2.98,0.49,1.02,-0.01,
1.493,-0.03,0.50,2.98,0.49,1.06,0.00,
1.493,0.19,0.35,2.41,0.49,1.06,0.00,
1.494,0.19,0.35,2.41,0.48,1.10,0.01,
1.494,0.38,0.24,2.00,0.48,1.10,0.01,
1.495,0.38,0.24,2.00,0.47,1.15,0.01,
1.495,0.54,0.15,1.77,0.47,1.15,0.01,
1.495,0.65,0.08,1.70,0.47,1.15,0.01,
1.496,0.65,0.08,1.70,0.47,1.18,0.01,
1.496,0.71,0.02,1.64,0.47,1.18,0.01,
1.497,0.71,0.02,1.64,0.48,1.22,0.02,
1.497,0.89,-0.06,1.58,0.48,1.22,0.02,
1.497,0.89,-0.06,1.58,0.53,1.23,0.03,
1.498,1.03,-0.12,1.46,0.53,1.23,0.03,
1.498,1.03,-0.12,1.46,0.59,1.23,0.04,
1.498,1.12,-0.15,1.20,0.59,1.23,0.04,
1.499,1.12,-0.15,1.20,0.67,1.22,0.05,
1.499,1.22,-0.17,0.88,0.67,1.22,0.05,
1.5,1.22,-0.17,0.88,0.77,1.19,0.05,
1.5,1.39,-0.20,0.47,0.77,1.19,0.05,
1.5,1.39,-0.20,0.47,0.87,1.14,0.06,
1.501,1.54,-0.25,-0.00,0.87,1.14,0.06,
1.501,1.54,-0.25,-0.00,0.97,1.08,0.06,
1.501,1.56,-0.33,-0.56,0.97,1.08,0.06,
1.502,1.56,-0.33,-0.56,1.06,1.00,0.05,
1.502,1.55,-0.38,-1.15,1.06,1.00,0.05,
1.502,1.55,-0.38,-1.15,1.13,0.91,0.04,
1.503,1.50,-0.45,-1.69,1.13,0.91,0.04,
1.503,1.50,-0.45,-1.69,1.18,0.83,0.03,
1.503,1.50,-0.45,-1.69,1.22,0.77,0.02,
1.504,1.44,-0.51,-2.16,1.22,0.77,0.02,
1.504,1.44,-0.51,-2.16,1.23,0.73,0.02,
1.505,1.29,-0.53,-2.55,1.23,0.73,0.02,
1.505,1.07,-0.52,-2.89,1.23,0.73,0.02,
1.505,1.07,-0.52,-2.89,1.24,0.70,0.02,
1.506,0.84,-0.43,-3.22,1.24,0.70,0.02,
1.506,0.84,-0.43,-3.22,1.23,0.68,0.03,
1.506,0.84,-0.43,-3.22,1.22,0.68,0.04,
1.507,0.61,-0.32,-3.53,1.22,0.68,0.04,
1.507,0.61,-0.32,-3.53,1.19,0.68,0.07,
1.507,0.50,-0.17,-3.89,1.19,0.68,0.07,
1.54,0.43,-0.07,-4.22,1.19,0.68,0.07,
1.54,0.43,-0.07,-4.22,1.16,0.69,0.10,
1.54,0.43,-0.07,-4.22,1.11,0.68,0.14,
1.541,0.45,-0.05,-4.51,1.11,0.68,0.14,
1.541,0.43,0.03,-4.70,1.11,0.68,0.14,
1.541,0.43,0.03,-4.70,1.06,0.67,0.18,
1.541,0.43,0.03,-4.70,1.01,0.65,0.21,
1.542,0.45,0.19,-4.87,1.01,0.65,0.21,
1.542,0.45,0.19,-4.87,0.96,0.61,0.23,
1.542,0.45,0.40,-5.01,0.96,0.61,0.23,
1.543,0.46,0.62,-5.09,0.96,0.61,0.23,
1.543,0.46,0.62,-5.09,0.91,0.57,0.25,
1.543,0.47,0.85,-5.14,0.91,0.57,0.25,
1.543,0.47,0.85,-5.14,0.86,0.51,0.26,
1.544,0.49,1.11,-5.23,0.86,0.51,0.26,
1.544,0.49,1.11,-5.23,0.82,0.45,0.28,
1.544,0.62,1.37,-5.46,0.82,0.45,0.28,
1.545,0.62,1.37,-5.46,0.78,0.38,0.29,
1.545,0.62,1.37,-5.46,0.73,0.32,0.30,
1.545,0.83,1.68,-5.75,0.73,0.32,0.30,
1.545,0.83,1.68,-5.75,0.66,0.26,0.30,
1.546,1.12,1.96,-6.13,0.66,0.26,0.30,
1.546,1.12,1.96,-6.13,0.58,0.22,0.30,
1.546,1.37,2.24,-6.53,0.58,0.22,0.30,
1.546,1.64,2.52,-6.98,0.58,0.22,0.30,
1.547,1.64,2.52,-6.98,0.47,0.21,0.29,
1.547,1.64,2.52,-6.98,0.35,0.21,0.28,
1.547,1.86,2.89,-7.40,0.35,0.21,0.28,
1.548,1.86,2.89,-7.40,0.20,0.24,0.26,
1.548,2.08,3.39,-7.83,0.20,0.24,0.26,
1.548,2.08,3.39,-7.83,0.03,0.29,0.23,
1.548,2.26,3.88,-8.25,0.03,0.29,0.23,
1.549,2.26,3.88,-8.25,-0.15,0.38,0.21,
1.549,2.47,4.31,-8.68,-0.15,0.38,0.21,
1.549,2.63,4.86,-9.16,-0.15,0.38,0.21,
1.55,2.63,4.86,-9.16,-0.35,0.51,0.19,
1.55,2.63,4.86,-9.16,-0.58,0.68,0.18,
1.55,2.72,5.45,-9.73,-0.58,0.68,0.18,
1.551,2.72,5.45,-9.73,-0.82,0.89,0.18,
1.551,2.85,6.14,-10.29,-0.82,0.89,0.18,
1.727,3.20,6.89,-10.85,-0.82,0.89,0.18,
1.727,3.20,6.89,-10.85,-1.09,1.14,0.19,
1.728,3.66,7.63,-11.53,-1.09,1.14,0.19,
1.728,3.66,7.63,-11.53,-1.38,1.41,0.18,
1.728,4.21,8.36,-12.39,-1.38,1.41,0.18,
1.729,4.21,8.36,-12.39,-1.68,1.69,0.16,
1.729,4.69,9.03,-13.36,-1.68,1.69,0.16,
1.729,4.69,9.03,-13.36,-2.03,1.96,0.13,
1.73,4.69,9.03,-13.36,-2.41,2.22,0.09,
1.73,5.27,9.72,-14.39,-2.41,2.22,0.09,
1.73,6.02,10.33,-15.48,-2.41,2.22,0.09,
1.731,6.02,10.33,-15.48,-2.85,2.46,0.04,
1.731,6.94,10.86,-16.46,-2.85,2.46,0.04,
1.731,6.94,10.86,-16.46,-3.36,2.68,-0.02,
1.732,6.94,10.86,-16.46,-3.95,2.89,-0.12,
1.732,8.05,11.16,-17.28,-3.95,2.89,-0.12,
1.732,8.05,11.16,-17.28,-4.60,3.09,-0.27,
1.733,9.25,11.34,-18.07,-4.60,3.09,-0.27,
1.733,9.25,11.34,-18.07,-5.33,3.31,-0.48,
1.733,10.46,11.28,-18.71,-5.33,3.31,-0.48,
1.734,10.46,11.28,-18.71,-6.13,3.59,-0.74,
1.734,11.64,10.75,-19.15,-6.13,3.59,-0.74,
1.735,11.64,10.75,-19.15,-6.99,3.95,-1.06,
1.735,12.57,9.73,-19.55,-6.99,3.95,-1.06,
1.735,12.57,9.73,-19.55,-7.90,4.41,-1.44,
1.736,12.68,7.87,-19.97,-7.90,4.41,-1.44,
1.736,12.68,7.87,-19.97,-8.88,4.98,-1.83,
1.737,11.82,5.22,-19.97,-8.88,4.98,-1.83,
1.737,11.82,5.22,-19.97,-9.87,5.60,-2.21,
1.737,10.48,2.00,-18.47,-9.87,5.60,-2.21,
1.738,10.48,2.00,-18.47,-10.81,6.17,-2.58,
1.738,8.97,-0.72,-15.21,-10.81,6.17,-2.58,
1.739,8.97,-0.72,-15.21,-11.60,6.56,-2.93,
1.739,6.83,-2.78,-10.96,-11.60,6.56,-2.93,
1.739,3.87,-4.79,-6.51,-11.60,6.56,-2.93,
1.74,3.87,-4.79,-6.51,-12.20,6.76,-3.26,
1.74,0.64,-7.08,-2.01,-12.20,6.76,-3.26,
1.74,0.64,-7.08,-2.01,-12.58,6.80,-3.49,
1.741,-2.46,-9.48,2.99,-12.58,6.80,-3.49,
1.741,-2.46,-9.48,2.99,-12.75,6.67,-3.58,
1.741,-2.46,-9.48,2.99,-12.68,6.39,-3.53,
1.742,-4.60,-11.41,8.82,-12.68,6.39,-3.53,
1.742,-4.60,-11.41,8.82,-12.34,5.94,-3.37,
1.743,-5.42,-12.43,15.44,-12.34,5.94,-3.37,
1.743,-5.65,-13.07,22.22,-12.34,5.94,-3.37,
1.743,-5.65,-13.07,22.22,-11.69,5.29,-3.16,
1.744,-5.65,-13.23,28.69,-11.69,5.29,-3.16,
1.744,-5.65,-13.23,28.69,-10.74,4.45,-2.89,
1.745,-5.77,-12.55,30.26,-10.74,4.45,-2.89,
1.745,-5.77,-12.55,30.26,-9.51,3.51,-2.55,
1.746,-5.77,-12.55,30.26,-8.06,2.61,-2.17,
1.746,-5.03,-11.32,30.06,-8.06,2.61,-2.17,
1.746,-3.69,-9.71,29.90,-8.06,2.61,-2.17,
1.747,-3.69,-9.71,29.90,-6.50,1.81,-1.77,
1.747,-1.67,-8.00,29.78,-6.50,1.81,-1.77,
1.748,-1.67,-8.00,29.78,-4.95,1.21,-1.42,
1.748,-1.67,-8.00,29.78,-3.53,0.94,-1.17,
1.749,1.03,-6.39,29.68,-3.53,0.94,-1.17,
1.749,1.03,-6.39,29.68,-2.31,1.03,-1.04,
1.749,3.87,-5.27,29.61,-2.31,1.03,-1.04,
1.777,5.92,-4.81,29.56,-2.31,1.03,-1.04,
1.778,5.92,-4.81,29.56,-1.32,1.47,-1.05,
1.779,6.98,-4.73,28.80,-1.32,1.47,-1.05,
1.779,6.98,-4.73,28.80,-0.55,2.17,-1.15,
1.78,7.06,-4.81,23.74,-0.55,2.17,-1.15,
1.78,7.06,-4.81,23.74,-0.02,2.98,-1.28,
1.781,6.53,-4.94,18.82,-0.02,2.98,-1.28,
1.781,6.53,-4.94,18.82,0.30,3.78,-1.40,
1.782,5.66,-5.20,14.60,0.30,3.78,-1.40,
1.782,5.66,-5.20,14.60,0.41,4.47,-1.48,
1.782,4.55,-5.42,11.25,0.41,4.47,-1.48,
1.783,4.55,-5.42,11.25,0.39,5.00,-1.51,
1.783,4.55,-5.42,11.25,0.29,5.35,-1.48,
1.784,3.71,-5.37,8.81,0.29,5.35,-1.48,
1.784,3.38,-5.15,7.18,0.29,5.35,-1.48,
1.784,3.38,-5.15,7.18,0.15,5.52,-1.40,
1.785,3.38,-5.15,7.18,0.03,5.53,-1.29,
1.785,3.70,-4.72,6.31,0.03,5.53,-1.29,
1.785,3.70,-4.72,6.31,-0.06,5.39,-1.18,
1.786,4.62,-4.25,6.06,-0.06,5.39,-1.18,
1.786,5.85,-3.73,6.09,-0.06,5.39,-1.18,
1.786,5.85,-3.73,6.09,-0.09,5.14,-1.11,
1.787,7.04,-3.48,6.05,-0.09,5.14,-1.11,
1.787,7.04,-3.48,6.05,-0.05,4.81,-1.08,
1.788,8.17,-3.49,5.94,-0.05,4.81,-1.08,
1.788,8.17,-3.49,5.94,0.03,4.44,-1.09,
1.788,8.86,-3.52,5.81,0.03,4.44,-1.09,
1.789,8.86,-3.52,5.81,0.14,4.07,-1.14,
1.789,8.86,-3.52,5.81,0.26,3.74,-1.22,
1.789,9.01,-3.57,5.63,0.26,3.74,-1.22,
1.79,8.83,-3.50,5.38,0.26,3.74,-1.22,
1.79,8.83,-3.50,5.38,0.38,3.43,-1.31,
1.79,8.65,-3.70,5.01,0.38,3.43,-1.31,
1.791,8.65,-3.70,5.01,0.51,3.14,-1.37,
1.791,8.62,-4.16,4.53,0.51,3.14,-1.37,
1.791,8.62,-4.16,4.53,0.63,2.88,-1.39,
1.792,8.41,-4.64,4.09,0.63,2.88,-1.39,
1.792,8.41,-4.64,4.09,0.73,2.65,-1.38,
1.793,7.98,-4.75,3.71,0.73,2.65,-1.38,
1.793,7.98,-4.75,3.71,0.80,2.49,-1.35,
1.828,7.59,-4.77,3.29,0.80,2.49,-1.35,
1.828,7.59,-4.77,3.29,0.85,2.41,-1.30,
1.829,7.58,-4.74,2.67,0.85,2.41,-1.30,
1.829,7.58,-4.74,2.67,0.87,2.40,-1.21,
1.829,7.95,-4.62,1.86,0.87,2.40,-1.21,
1.83,7.95,-4.62,1.86,0.87,2.39,-1.11,
1.83,8.44,-4.44,0.72,0.87,2.39,-1.11,
1.83,8.44,-4.44,0.72,0.84,2.37,-1.02,
1.831,9.01,-4.14,-0.67,0.84,2.37,-1.02,
1.831,9.01,-4.14,-0.67,0.75,2.35,-0.95,
1.831,9.71,-3.80,-2.00,0.75,2.35,-0.95,
1.832,9.71,-3.80,-2.00,0.62,2.35,-0.88,
1.832,9.71,-3.80,-2.00,0.43,2.38,-0.83,
1.832,10.46,-3.57,-3.23,0.43,2.38,-0.83,
1.833,10.46,-3.57,-3.23,0.19,2.43,-0.81,
1.833,11.03,-3.58,-4.32,0.19,2.43,-0.81,
1.838,11.03,-3.58,-4.32,-0.09,2.48,-0.79,
1.839,11.32,-3.64,-5.23,-0.09,2.48,-0.79,
1.842,11.32,-3.64,-5.23,-0.40,2.53,-0.77,
1.843,11.42,-3.66,-5.83,-0.40,2.53,-0.77,
1.969,11.32,-3.50,-6.20,-0.40,2.53,-0.77,
1.97,11.32,-3.50,-6.20,-0.73,2.60,-0.72,
1.971,11.09,-3.26,-6.46,-0.73,2.60,-0.72,
1.971,11.09,-3.26,-6.46,-1.08,2.70,-0.64,
1.971,10.97,-3.16,-6.50,-1.08,2.70,-0.64,
1.972,10.97,-3.16,-6.50,-1.44,2.86,-0.53,
1.972,10.97,-3.16,-6.50,-1.80,3.04,-0.38,
1.973,11.13,-3.07,-6.54,-1.80,3.04,-0.38,
1.973,11.50,-3.08,-6.70,-1.80,3.04,-0.38,
1.973,11.50,-3.08,-6.70,-2.16,3.20,-0.21,
1.974,11.50,-3.08,-6.70,-2.51,3.38,-0.00,
1.974,11.78,-3.10,-6.91,-2.51,3.38,-0.00,
1.975,11.95,-3.16,-7.10,-2.51,3.38,-0.00,
1.975,11.95,-3.16,-7.10,-2.89,3.61,0.23,
1.975,11.95,-3.16,-7.10,-3.28,3.92,0.48,
1.976,12.30,-3.19,-7.05,-3.28,3.92,0.48,
1.976,12.97,-3.39,-6.37,-3.28,3.92,0.48,
1.977,12.97,-3.39,-6.37,-3.69,4.29,0.71,
1.977,12.97,-3.39,-6.37,-4.08,4.69,0.92,
1.977,13.86,-3.85,-5.06,-4.08,4.69,0.92,
1.978,13.86,-3.85,-5.06,-4.40,5.08,1.06,
1.978,14.75,-4.39,-3.16,-4.40,5.08,1.06,
1.978,14.75,-4.39,-3.16,-4.62,5.44,1.14,
1.979,15.44,-4.67,-0.62,-4.62,5.44,1.14,
1.979,15.44,-4.67,-0.62,-4.69,5.79,1.15,
1.98,15.65,-4.44,2.57,-4.69,5.79,1.15,
1.98,15.35,-3.79,6.18,-4.69,5.79,1.15,
1.98,15.35,-3.79,6.18,-4.58,6.10,1.08,
1.98,15.35,-3.79,6.18,-4.25,6.33,0.94,
1.981,14.79,-3.14,9.70,-4.25,6.33,0.94,
1.981,14.79,-3.14,9.70,-3.69,6.42,0.76,
1.982,14.24,-2.60,12.93,-3.69,6.42,0.76,
1.982,14.24,-2.60,12.93,-2.89,6.37,0.57,
1.982,13.76,-2.21,15.66,-2.89,6.37,0.57,
1.983,13.76,-2.21,15.66,-1.86,6.16,0.37,
1.983,13.16,-1.94,17.60,-1.86,6.16,0.37,
1.983,12.76,-1.81,18.08,-1.86,6.16,0.37,
1.984,12.76,-1.81,18.08,-0.61,5.75,0.16,
1.984,12.44,-2.13,16.94,-0.61,5.75,0.16,
1.984,12.44,-2.13,16.94,0.79,5.13,-0.06,
2.013,12.15,-2.75,14.38,0.79,5.13,-0.06,
2.014,12.15,-2.75,14.38,2.26,4.30,-0.31,
2.014,12.15,-2.75,14.38,3.70,3.35,-0.59,
2.014,11.88,-3.72,10.61,3.70,3.35,-0.59,
2.015,11.88,-3.72,10.61,5.02,2.36,-0.92,
2.015,11.54,-4.90,6.09,5.02,2.36,-0.92,
2.015,11.54,-4.90,6.09,6.16,1.37,-1.31,
2.016,11.06,-6.19,1.26,6.16,1.37,-1.31,
2.016,9.59,-7.53,-3.80,6.16,1.37,-1.31,
2.016,9.59,-7.53,-3.80,7.07,0.44,-1.78,
2.017,6.89,-8.98,-8.98,7.07,0.44,-1.78,
2.017,6.89,-8.98,-8.98,7.72,-0.36,-2.29,
2.017,6.89,-8.98,-8.98,8.07,-1.01,-2.77,
2.018,3.19,-10.41,-13.89,8.07,-1.01,-2.77,
2.018,-1.16,-11.40,-18.09,8.07,-1.01,-2.77,
2.018,-1.16,-11.40,-18.09,8.13,-1.48,-3.14,
2.019,-5.19,-11.96,-20.96,8.13,-1.48,-3.14,
2.019,-5.19,-11.96,-20.96,7.92,-1.76,-3.32,
2.02,-8.07,-12.10,-22.25,7.92,-1.76,-3.32,
2.02,-8.07,-12.10,-22.25,7.50,-1.88,-3.30,
2.02,-10.28,-11.94,-22.71,7.50,-1.88,-3.30,
2.021,-10.28,-11.94,-22.71,6.98,-1.89,-3.11,
2.021,-12.31,-11.41,-23.09,6.98,-1.89,-3.11,
2.022,-12.31,-11.41,-23.09,6.39,-1.78,-2.78,
2.022,-14.20,-10.78,-23.48,6.39,-1.78,-2.78,
2.023,-14.20,-10.78,-23.48,5.74,-1.48,-2.33,
2.023,-15.41,-10.46,-23.11,5.74,-1.48,-2.33,
2.024,-15.41,-10.46,-23.11,5.01,-0.97,-1.76,
2.024,-15.51,-10.41,-21.54,5.01,-0.97,-1.76,
2.025,-15.51,-10.41,-21.54,4.26,-0.30,-1.12,
2.025,-14.78,-10.14,-19.12,4.26,-0.30,-1.12,
2.026,-14.78,-10.14,-19.12,3.57,0.44,-0.43,
2.026,-13.81,-9.71,-16.38,3.57,0.44,-0.43,
2.026,-13.81,-9.71,-16.38,3.03,1.18,0.23,
2.027,-12.81,-9.20,-13.86,3.03,1.18,0.23,
2.027,-12.81,-9.20,-13.86,2.68,1.82,0.84,
2.087,-11.47,-8.73,-11.80,2.68,1.82,0.84,
2.087,-11.47,-8.73,-11.80,2.51,2.28,1.41,
2.088,-9.62,-8.28,-10.22,2.51,2.28,1.41,
2.088,-9.62,-8.28,-10.22,2.51,2.57,1.92,
2.088,-9.62,-8.28,-10.22,2.64,2.71,2.34,
2.089,-7.35,-7.91,-9.19,2.64,2.71,2.34,
2.089,-7.35,-7.91,-9.19,2.89,2.67,2.66,
2.09,-4.92,-7.49,-8.79,2.89,2.67,2.66,
2.09,-2.03,-6.96,-9.27,2.89,2.67,2.66,
2.09,-2.03,-6.96,-9.27,3.23,2.49,2.88,
2.091,-2.03,-6.96,-9.27,3.61,2.19,2.98,
2.091,1.27,-6.21,-10.94,3.61,2.19,2.98,
2.092,4.37,-5.32,-13.64,3.61,2.19,2.98,
2.092,4.37,-5.32,-13.64,3.95,1.79,2.93,
2.092,4.37,-5.32,-13.64,4.20,1.36,2.74,
2.093,7.00,-4.54,-17.26,4.20,1.36,2.74,
2.094,7.00,-4.54,-17.26,4.29,0.94,2.42,
2.094,8.94,-4.05,-21.14,4.29,0.94,2.42,
2.095,8.94,-4.05,-21.14,4.20,0.58,2.00,
2.095,10.23,-3.80,-24.82,4.20,0.58,2.00,
2.096,10.23,-3.80,-24.82,3.91,0.29,1.50,
2.096,10.49,-3.65,-27.99,3.91,0.29,1.50,
2.097,10.49,-3.65,-27.99,3.45,0.03,0.95,
2.097,9.78,-3.48,-30.28,3.45,0.03,0.95,
2.098,9.78,-3.48,-30.28,2.85,-0.19,0.42,
2.098,8.39,-3.30,-31.67,2.85,-0.19,0.42,
2.099,8.39,-3.30,-31.67,2.12,-0.38,-0.07,
2.099,6.07,-3.45,-32.04,2.12,-0.38,-0.07,
2.1,6.07,-3.45,-32.04,1.30,-0.52,-0.48,
2.1,3.12,-3.98,-31.16,1.30,-0.52,-0.48,
2.162,3.12,-3.98,-31.16,0.44,-0.58,-0.74,
2.162,0.02,-4.89,-29.28,0.44,-0.58,-0.74,
2.163,0.02,-4.89,-29.28,-0.43,-0.55,-0.86,
2.163,-2.53,-6.07,-26.86,-0.43,-0.55,-0.86,
2.163,-2.53,-6.07,-26.86,-1.25,-0.46,-0.85,
2.164,-4.45,-7.27,-24.03,-1.25,-0.46,-0.85,
2.164,-4.45,-7.27,-24.03,-2.00,-0.33,-0.74,
2.165,-5.95,-8.23,-20.73,-2.00,-0.33,-0.74,
2.165,-7.19,-8.99,-17.11,-2.00,-0.33,-0.74,
2.165,-7.19,-8.99,-17.11,-2.65,-0.22,-0.56,
2.166,-7.19,-8.99,-17.11,-3.18,-0.13,-0.33,
2.166,-7.94,-9.53,-13.36,-3.18,-0.13,-0.33,
2.167,-7.94,-9.53,-13.36,-3.58,-0.05,-0.07,
2.167,-8.17,-9.97,-9.44,-3.58,-0.05,-0.07,
2.167,-8.17,-9.97,-9.44,-3.83,0.01,0.19,
2.168,-7.94,-10.21,-5.52,-3.83,0.01,0.19,
2.168,-7.61,-10.12,-1.87,-3.83,0.01,0.19,
2.169,-7.61,-10.12,-1.87,-3.93,0.05,0.44,
2.169,-7.61,-10.12,-1.87,-3.88,0.06,0.68,
2.169,-7.28,-9.66,1.24,-3.88,0.06,0.68,
2.17,-7.28,-9.66,1.24,-3.71,0.06,0.89,
2.17,-6.98,-8.91,3.97,-3.71,0.06,0.89,
2.17,-6.98,-8.91,3.97,-3.42,0.05,1.08,
2.171,-6.57,-8.05,6.37,-3.42,0.05,1.08,
2.171,-6.04,-7.11,8.23,-3.42,0.05,1.08,
2.171,-6.04,-7.11,8.23,-3.03,0.04,1.26,
2.172,-5.49,-6.30,9.35,-3.03,0.04,1.26,
2.172,-5.49,-6.30,9.35,-2.57,0.04,1.42,
2.176,-5.49,-6.30,9.35,-2.06,0.03,1.56,
2.177,-4.80,-5.54,9.85,-2.06,0.03,1.56,
2.187,-4.80,-5.54,9.85,-1.53,0.03,1.67,
2.187,-3.89,-4.90,9.76,-1.53,0.03,1.67,
2.188,-2.96,-4.30,9.12,-1.53,0.03,1.67,
2.188,-2.96,-4.30,9.12,-1.00,0.04,1.75,
2.231,-2.24,-3.83,8.06,-1.00,0.04,1.75,
2.231,-2.24,-3.83,8.06,-0.49,0.03,1.80,
2.231,-2.24,-3.83,8.06,-0.03,-0.01,1.81,
2.232,-1.66,-3.53,6.73,-0.03,-0.01,1.81,
2.232,-1.66,-3.53,6.73,0.39,-0.07,1.80,
2.232,-1.09,-3.10,5.38,0.39,-0.07,1.80,
2.233,-1.09,-3.10,5.38,0.76,-0.13,1.79,
2.233,-0.47,-2.67,4.02,0.76,-0.13,1.79,
2.233,-0.47,-2.67,4.02,1.08,-0.20,1.75,
2.234,0.13,-2.30,2.56,1.08,-0.20,1.75,
2.234,0.67,-1.90,1.21,1.08,-0.20,1.75,
2.234,0.67,-1.90,1.21,1.33,-0.26,1.69,
2.234,1.26,-1.59,0.03,1.33,-0.26,1.69,
2.235,1.26,-1.59,0.03,1.52,-0.30,1.62,
2.235,1.26,-1.59,0.03,1.64,-0.31,1.55,
2.235,1.89,-1.31,-1.00,1.64,-0.31,1.55,
2.236,2.40,-1.01,-1.91,1.64,-0.31,1.55,
2.236,2.40,-1.01,-1.91,1.72,-0.31,1.45,
2.236,2.69,-0.69,-2.83,1.72,-0.31,1.45,
2.237,2.69,-0.69,-2.83,1.76,-0.30,1.35,
2.237,2.73,-0.37,-3.65,1.76,-0.30,1.35,
2.237,2.73,-0.37,-3.65,1.74,-0.28,1.25,
2.252,2.71,-0.08,-4.26,1.74,-0.28,1.25,
2.252,2.71,-0.08,-4.26,1.69,-0.24,1.16,
2.252,2.65,0.26,-4.58,1.69,-0.24,1.16,
2.253,2.65,0.26,-4.58,1.59,-0.17,1.08,
2.253,2.65,0.26,-4.58,1.48,-0.10,1.02,
2.253,2.64,0.62,-4.68,1.48,-0.10,1.02,
2.262,2.64,0.62,-4.68,1.37,-0.03,0.96,
2.262,2.66,1.00,-4.59,1.37,-0.03,0.96,
2.263,2.66,1.00,-4.59,1.25,0.04,0.89,
2.263,2.70,1.33,-4.40,1.25,0.04,0.89,
2.266,2.70,1.33,-4.40,1.13,0.12,0.82,
2.269,2.69,1.51,-4.25,1.13,0.12,0.82,
2.272,2.69,1.51,-4.25,1.01,0.20,0.75,
2.272,2.63,1.59,-4.04,1.01,0.20,0.75,
2.277,2.63,1.59,-4.04,0.89,0.27,0.68,
2.277,2.49,1.62,-3.79,0.89,0.27,0.68,
2.285,2.49,1.62,-3.79,0.77,0.35,0.61,
2.285,2.41,1.65,-3.48,0.77,0.35,0.61,
2.286,2.41,1.65,-3.48,0.65,0.42,0.55,
2.286,2.18,1.60,-3.17,0.65,0.42,0.55,
2.291,2.18,1.60,-3.17,0.55,0.47,0.50,
2.291,1.90,1.47,-2.90,0.55,0.47,0.50,
2.312,1.90,1.47,-2.90,0.44,0.51,0.46,
2.313,1.50,1.39,-2.66,0.44,0.51,0.46,
2.313,1.50,1.39,-2.66,0.34,0.54,0.44,
2.313,1.13,1.24,-2.57,0.34,0.54,0.44,
2.314,1.13,1.24,-2.57,0.23,0.56,0.45,
2.314,0.77,1.12,-2.50,0.23,0.56,0.45,
2.314,0.37,1.01,-2.43,0.23,0.56,0.45,
2.314,0.37,1.01,-2.43,0.10,0.56,0.47,
2.315,0.37,1.01,-2.43,-0.03,0.54,0.51,
2.315,-0.13,1.01,-2.32,-0.03,0.54,0.51,
2.331,-0.13,1.01,-2.32,-0.18,0.52,0.58,
2.332,-0.66,0.98,-2.01,-0.18,0.52,0.58,
2.332,-0.91,1.00,-1.68,-0.18,0.52,0.58,
2.332,-0.91,1.00,-1.68,-0.31,0.50,0.68,
2.333,-1.18,1.37,-1.04,-0.31,0.50,0.68,
2.333,-1.18,1.37,-1.04,-0.45,0.46,0.82,
2.375,-0.98,1.75,-0.35,-0.45,0.46,0.82,
2.375,-0.98,1.75,-0.35,-0.57,0.41,0.98,
2.375,-0.98,1.75,-0.35,-0.68,0.38,1.14,
2.376,-0.38,1.95,0.35,-0.68,0.38,1.14,
2.376,-0.38,1.95,0.35,-0.77,0.38,1.30,
2.377,0.35,2.12,1.05,-0.77,0.38,1.30,
2.377,0.35,2.12,1.05,-0.84,0.40,1.43,
2.377,1.05,2.38,1.67,-0.84,0.40,1.43,
2.378,1.05,2.38,1.67,-0.89,0.45,1.53,
2.378,1.80,2.82,2.05,-0.89,0.45,1.53,
2.378,1.80,2.82,2.05,-0.94,0.53,1.61,
2.379,2.63,3.28,2.33,-0.94,0.53,1.61,
2.379,2.63,3.28,2.33,-1.00,0.63,1.65,
2.379,3.54,3.60,2.42,-1.00,0.63,1.65,
2.38,3.54,3.60,2.42,-1.08,0.77,1.66,
2.38,4.36,3.82,2.44,-1.08,0.77,1.66,
2.38,4.36,3.82,2.44,-1.16,0.93,1.62,
2.381,5.07,3.92,2.43,-1.16,0.93,1.62,
2.381,5.07,3.92,2.43,-1.25,1.11,1.57,
2.381,5.66,4.00,2.52,-1.25,1.11,1.57,
2.384,6.20,4.07,2.80,-1.25,1.11,1.57,
2.385,6.20,4.07,2.80,-1.35,1.30,1.48,
2.389,6.20,4.07,2.80,-1.44,1.48,1.37,
2.39,6.70,4.05,3.15,-1.44,1.48,1.37,
2.393,6.70,4.05,3.15,-1.51,1.65,1.23,
2.394,6.96,4.04,3.62,-1.51,1.65,1.23,
2.398,6.96,4.04,3.62,-1.55,1.78,1.06,
2.398,6.99,4.02,4.04,-1.55,1.78,1.06,
2.403,6.99,4.02,4.04,-1.54,1.86,0.89,
2.404,6.79,4.04,4.30,-1.54,1.86,0.89,
2.408,6.79,4.04,4.30,-1.51,1.89,0.70,
2.408,6.41,4.05,4.48,-1.51,1.89,0.70,
2.419,6.41,4.05,4.48,-1.44,1.85,0.53,
2.419,5.97,3.94,4.73,-1.44,1.85,0.53,
2.42,5.44,3.79,5.09,-1.44,1.85,0.53,
2.42,5.44,3.79,5.09,-1.33,1.76,0.36,
2.423,5.44,3.79,5.09,-1.18,1.62,0.21,
2.423,5.00,3.64,5.37,-1.18,1.62,0.21,
2.447,5.00,3.64,5.37,-0.98,1.45,0.07,
2.447,4.53,3.50,5.58,-0.98,1.45,0.07,
2.654,4.53,3.50,5.58,-0.75,1.24,-0.06,
2.655,4.14,3.34,5.56,-0.75,1.24,-0.06,
2.655,4.14,3.34,5.56,-0.49,0.98,-0.19,
2.656,3.75,3.16,5.34,-0.49,0.98,-0.19,
2.657,3.75,3.16,5.34,-0.22,0.69,-0.31,
2.657,3.42,2.93,4.98,-0.22,0.69,-0.31,
2.658,3.42,2.93,4.98,0.04,0.41,-0.43,
2.659,3.01,2.68,4.43,0.04,0.41,-0.43,
2.659,3.01,2.68,4.43,0.28,0.14,-0.55,
2.66,2.59,2.31,3.66,0.28,0.14,-0.55,
2.66,2.59,2.31,3.66,0.48,-0.11,-0.66,
2.661,2.06,1.93,2.92,0.48,-0.11,-0.66,
2.661,1.48,1.62,2.17,0.48,-0.11,-0.66,
2.662,1.48,1.62,2.17,0.63,-0.34,-0.75,
2.662,1.48,1.62,2.17,0.75,-0.55,-0.81,
2.662,0.89,1.31,1.57,0.75,-0.55,-0.81,
2.663,0.27,1.06,0.99,0.75,-0.55,-0.81,
2.663,0.27,1.06,0.99,0.83,-0.73,-0.85,
2.664,0.27,1.06,0.99,0.87,-0.86,-0.87,
2.664,-0.30,0.94,0.58,0.87,-0.86,-0.87,
2.665,-0.30,0.94,0.58,0.87,-0.93,-0.87,
2.665,-0.74,0.74,0.28,0.87,-0.93,-0.87,
2.666,-0.74,0.74,0.28,0.85,-0.96,-0.87,
2.666,-1.16,0.42,-0.06,0.85,-0.96,-0.87,
2.667,-1.16,0.42,-0.06,0.81,-0.96,-0.85,
2.667,-1.61,0.09,-0.27,0.81,-0.96,-0.85,
2.668,-1.61,0.09,-0.27,0.76,-0.93,-0.81,
2.668,-2.02,-0.21,-0.46,0.76,-0.93,-0.81,
2.669,-2.27,-0.37,-0.54,0.76,-0.93,-0.81,
2.669,-2.27,-0.37,-0.54,0.69,-0.88,-0.75,
2.67,-2.27,-0.37,-0.54,0.62,-0.82,-0.68,
2.67,-2.77,-0.45,-0.43,0.62,-0.82,-0.68,
2.671,-3.06,-0.60,-0.43,0.62,-0.82,-0.68,
2.671,-3.06,-0.60,-0.43,0.56,-0.75,-0.59,
2.672,-3.21,-0.67,-0.36,0.56,-0.75,-0.59,
2.672,-3.21,-0.67,-0.36,0.51,-0.71,-0.48,
2.673,-3.21,-0.67,-0.36,0.47,-0.69,-0.37,
2.673,-3.16,-0.71,-0.16,0.47,-0.69,-0.37,
2.674,-3.16,-0.71,-0.16,0.44,-0.66,-0.25,
2.674,-2.92,-0.67,0.05,0.44,-0.66,-0.25,
2.675,-2.92,-0.67,0.05,0.42,-0.63,-0.16,
2.675,-2.56,-0.64,0.26,0.42,-0.63,-0.16,
2.676,-2.23,-0.71,0.46,0.42,-0.63,-0.16,
2.676,-2.23,-0.71,0.46,0.42,-0.59,-0.08,
2.677,-1.92,-0.80,0.51,0.42,-0.59,-0.08,
2.677,-1.92,-0.80,0.51,0.43,-0.55,-0.02,
2.678,-1.63,-0.90,0.48,0.43,-0.55,-0.02,
2.678,-1.63,-0.90,0.48,0.45,-0.52,0.04,
2.678,-1.36,-0.91,0.41,0.45,-0.52,0.04,
2.679,-1.36,-0.91,0.41,0.46,-0.49,0.09,
2.679,-1.06,-0.87,0.36,0.46,-0.49,0.09,
2.68,-1.06,-0.87,0.36,0.48,-0.46,0.14,
2.68,-0.76,-0.83,0.33,0.48,-0.46,0.14,
2.681,-0.76,-0.83,0.33,0.49,-0.43,0.18,
2.681,-0.76,-0.83,0.33,0.49,-0.42,0.21,
2.682,-0.53,-0.81,0.35,0.49,-0.42,0.21,
2.682,-0.31,-0.76,0.41,0.49,-0.42,0.21,
2.683,-0.31,-0.76,0.41,0.50,-0.43,0.23,
2.683,-0.03,-0.67,0.51,0.50,-0.43,0.23,
2.684,-0.03,-0.67,0.51,0.51,-0.45,0.25,
2.684,0.28,-0.60,0.65,0.51,-0.45,0.25,
2.684,0.28,-0.60,0.65,0.52,-0.47,0.27,
2.685,0.28,-0.60,0.65,0.53,-0.50,0.27,
2.685,0.64,-0.54,0.79,0.53,-0.50,0.27,
2.686,0.99,-0.46,0.89,0.53,-0.50,0.27,
2.686,0.99,-0.46,0.89,0.54,-0.53,0.27,
2.686,0.99,-0.46,0.89,0.55,-0.54,0.26,
2.687,1.24,-0.41,0.93,0.55,-0.54,0.26,
2.687,1.44,-0.41,1.01,0.55,-0.54,0.26,
2.688,1.44,-0.41,1.01,0.55,-0.54,0.24,
2.688,1.57,-0.36,1.13,0.55,-0.54,0.24,
2.688,1.57,-0.36,1.13,0.56,-0.52,0.21,
2.689,1.69,-0.38,1.35,0.56,-0.52,0.21,
2.689,1.69,-0.38,1.35,0.56,-0.49,0.16,
2.69,1.69,-0.38,1.35,0.56,-0.46,0.11,
2.69,1.72,-0.45,1.59,0.56,-0.46,0.11,
2.69,1.72,-0.45,1.59,0.58,-0.42,0.04,
2.691,1.68,-0.53,1.76,0.58,-0.42,0.04,
2.691,1.68,-0.53,1.76,0.61,-0.38,-0.03,
2.692,1.57,-0.62,1.94,0.61,-0.38,-0.03,
2.692,1.57,-0.62,1.94,0.65,-0.34,-0.10,
2.693,1.39,-0.73,2.01,0.65,-0.34,-0.10,
2.693,1.39,-0.73,2.01,0.69,-0.30,-0.17,
2.693,1.05,-0.81,1.98,0.69,-0.30,-0.17,
2.694,1.05,-0.81,1.98,0.75,-0.27,-0.22,
2.694,0.66,-0.97,1.92,0.75,-0.27,-0.22,
2.695,0.66,-0.97,1.92,0.80,-0.24,-0.27,
2.695,0.20,-1.04,1.78,0.80,-0.24,-0.27,
2.696,0.20,-1.04,1.78,0.85,-0.21,-0.31,
2.696,-0.26,-1.06,1.62,0.85,-0.21,-0.31,
2.697,-0.26,-1.06,1.62,0.89,-0.18,-0.33,
2.697,-0.79,-0.99,1.46,0.89,-0.18,-0.33,
2.698,-1.28,-0.92,1.21,0.89,-0.18,-0.33,
2.698,-1.28,-0.92,1.21,0.91,-0.13,-0.35,
2.699,-1.68,-0.97,1.03,0.91,-0.13,-0.35,
2.699,-1.68,-0.97,1.03,0.93,-0.07,-0.36,
2.7,-1.88,-1.14,0.90,0.93,-0.07,-0.36,
2.7,-1.88,-1.14,0.90,0.93,-0.01,-0.36,
2.701,-1.96,-1.40,0.84,0.93,-0.01,-0.36,
2.701,-1.96,-1.40,0.84,0.92,0.06,-0.35,
2.73,-1.96,-1.40,0.84,0.92,0.16,-0.34,
2.73,-2.00,-1.57,0.82,0.92,0.16,-0.34,
2.731,-2.00,-1.57,0.82,0.92,0.26,-0.34,
2.731,-2.05,-1.75,0.77,0.92,0.26,-0.34,
2.731,-2.05,-1.75,0.77,0.93,0.37,-0.34,
2.732,-2.27,-2.03,0.60,0.93,0.37,-0.34,
2.732,-2.27,-2.03,0.60,0.93,0.46,-0.33,
2.733,-2.55,-2.35,0.34,0.93,0.46,-0.33,
2.733,-2.55,-2.35,0.34,0.93,0.56,-0.29,
2.733,-2.82,-2.59,0.02,0.93,0.56,-0.29,
2.734,-2.82,-2.59,0.02,0.92,0.65,-0.23,
2.734,-2.98,-2.72,-0.27,0.92,0.65,-0.23,
2.734,-2.98,-2.72,-0.27,0.89,0.75,-0.17,
2.735,-3.09,-2.83,-0.68,0.89,0.75,-0.17,
2.735,-3.09,-2.83,-0.68,0.85,0.84,-0.09,
2.735,-3.16,-2.93,-1.04,0.85,0.84,-0.09,
2.736,-3.16,-2.93,-1.04,0.77,0.92,-0.02,
2.736,-3.20,-2.94,-1.36,0.77,0.92,-0.02,
2.736,-3.11,-2.92,-1.59,0.77,0.92,-0.02,
2.737,-3.11,-2.92,-1.59,0.69,0.98,0.06,
2.737,-2.83,-2.94,-1.86,0.69,0.98,0.06,
2.737,-2.83,-2.94,-1.86,0.60,1.03,0.13,
2.738,-2.56,-3.04,-2.14,0.60,1.03,0.13,
2.738,-2.56,-3.04,-2.14,0.48,1.09,0.20,
2.738,-2.37,-3.21,-2.37,0.48,1.09,0.20,
2.738,-2.37,-3.21,-2.37,0.34,1.18,0.26,
2.739,-2.21,-3.38,-2.50,0.34,1.18,0.26,
2.739,-2.21,-3.38,-2.50,0.18,1.29,0.31,
2.966,-2.07,-3.50,-2.51,0.18,1.29,0.31,
2.966,-2.07,-3.50,-2.51,0.00,1.42,0.35,
2.966,-1.95,-3.55,-2.45,0.00,1.42,0.35,
2.967,-1.95,-3.55,-2.45,-0.18,1.56,0.39,
2.967,-1.79,-3.60,-2.31,-0.18,1.56,0.39,
2.967,-1.79,-3.60,-2.31,-0.36,1.70,0.42,
2.967,-1.60,-3.75,-2.28,-0.36,1.70,0.42,
2.968,-1.60,-3.75,-2.28,-0.53,1.83,0.44,
2.968,-1.47,-3.93,-2.27,-0.53,1.83,0.44,
2.968,-1.47,-3.93,-2.27,-0.70,1.94,0.45,
2.969,-1.49,-4.15,-2.22,-0.70,1.94,0.45,
2.969,-1.49,-4.15,-2.22,-0.87,2.03,0.44,
2.969,-1.62,-4.23,-2.06,-0.87,2.03,0.44,
2.97,-1.62,-4.23,-2.06,-1.03,2.11,0.44,
2.97,-1.63,-4.33,-1.78,-1.03,2.11,0.44,
2.97,-1.63,-4.33,-1.78,-1.19,2.19,0.44,
2.971,-1.59,-4.50,-1.43,-1.19,2.19,0.44,
2.971,-1.59,-4.50,-1.43,-1.33,2.26,0.43,
2.971,-1.59,-4.50,-1.43,-1.45,2.29,0.42,
2.971,-1.69,-4.75,-1.15,-1.45,2.29,0.42,
2.972,-1.97,-5.06,-0.92,-1.45,2.29,0.42,
2.972,-1.97,-5.06,-0.92,-1.55,2.29,0.40,
2.972,-1.97,-5.06,-0.92,-1.63,2.25,0.39,
2.973,-2.29,-5.32,-0.80,-1.63,2.25,0.39,
2.973,-2.54,-5.53,-0.64,-1.63,2.25,0.39,
2.973,-2.54,-5.53,-0.64,-1.71,2.19,0.39,
2.974,-2.54,-5.53,-0.64,-1.78,2.10,0.41,
2.974,-2.74,-5.69,-0.51,-1.78,2.10,0.41,
2.974,-2.92,-6.00,-0.31,-1.78,2.10,0.41,
2.975,-2.92,-6.00,-0.31,-1.84,2.00,0.43,
2.975,-2.92,-6.00,-0.31,-1.90,1.90,0.46,
2.975,-3.12,-6.34,-0.10,-1.90,1.90,0.46,
2.975,-3.12,-6.34,-0.10,-1.95,1.79,0.50,
2.976,-3.37,-6.59,0.20,-1.95,1.79,0.50,
2.976,-3.37,-6.59,0.20,-1.98,1.66,0.54,
2.976,-3.47,-6.71,0.64,-1.98,1.66,0.54,
2.977,-3.51,-6.87,1.05,-1.98,1.66,0.54,
2.977,-3.51,-6.87,1.05,-2.00,1.52,0.58,
2.977,-3.51,-7.12,1.51,-2.00,1.52,0.58,
2.978,-3.51,-7.12,1.51,-2.01,1.37,0.63,
2.978,-3.42,-7.54,2.00,-2.01,1.37,0.63,
2.978,-3.42,-7.54,2.00,-2.00,1.22,0.67,
2.979,-3.42,-7.54,2.00,-1.96,1.07,0.72,
2.979,-3.42,-7.92,2.55,-1.96,1.07,0.72,
2.979,-3.50,-8.24,3.11,-1.96,1.07,0.72,
2.98,-3.50,-8.24,3.11,-1.91,0.93,0.76,
2.98,-3.55,-8.46,3.75,-1.91,0.93,0.76,
2.98,-3.55,-8.46,3.75,-1.83,0.78,0.82,
2.981,-3.56,-8.69,4.32,-1.83,0.78,0.82,
2.981,-3.56,-8.69,4.32,-1.72,0.64,0.89,
2.981,-3.57,-8.94,4.87,-1.72,0.64,0.89,
2.982,-3.57,-8.94,4.87,-1.58,0.48,0.97,
2.982,-3.67,-9.25,5.38,-1.58,0.48,0.97,
2.982,-3.67,-9.25,5.38,-1.41,0.30,1.06,
2.983,-3.67,-9.25,5.38,-1.20,0.08,1.17,
2.983,-3.81,-9.46,5.79,-1.20,0.08,1.17,
2.983,-3.81,-9.46,5.79,-0.97,-0.16,1.29,
2.984,-3.97,-9.66,5.99,-0.97,-0.16,1.29,
2.984,-4.20,-9.90,5.86,-0.97,-0.16,1.29,
2.984,-4.20,-9.90,5.86,-0.70,-0.48,1.44,
2.985,-4.20,-9.90,5.86,-0.40,-0.88,1.61,
2.985,-4.41,-10.22,5.62,-0.40,-0.88,1.61,
2.985,-4.41,-10.22,5.62,-0.09,-1.35,1.82,
2.986,-4.51,-10.44,5.31,-0.09,-1.35,1.82,
2.986,-4.51,-10.44,5.31,0.23,-1.86,2.06,
2.987,-4.36,-10.69,4.97,0.23,-1.86,2.06,
2.987,-3.58,-10.49,4.55,0.23,-1.86,2.06,
2.987,-3.58,-10.49,4.55,0.55,-2.37,2.30,
2.988,-2.07,-9.75,4.08,0.55,-2.37,2.30,
2.988,-2.07,-9.75,4.08,0.85,-2.89,2.51,
2.988,-0.38,-8.74,3.62,0.85,-2.89,2.51,
2.989,-0.38,-8.74,3.62,1.10,-3.36,2.65,
3.018,1.26,-7.98,3.01,1.10,-3.36,2.65,
3.018,1.26,-7.98,3.01,1.29,-3.73,2.69,
3.019,2.44,-7.88,2.49,1.29,-3.73,2.69,
3.019,2.44,-7.88,2.49,1.40,-3.93,2.63,
3.019,2.44,-7.88,2.49,1.42,-3.88,2.52,
3.02,3.22,-8.25,2.37,1.42,-3.88,2.52,
3.02,3.22,-8.25,2.37,1.37,-3.59,2.42,
3.02,3.86,-8.62,2.53,1.37,-3.59,2.42,
3.021,4.14,-8.74,2.87,1.37,-3.59,2.42,
3.021,4.14,-8.74,2.87,1.28,-3.11,2.32,
3.021,4.14,-8.74,2.87,1.19,-2.52,2.20,
3.022,3.99,-8.77,3.20,1.19,-2.52,2.20,
3.022,3.54,-8.89,3.30,1.19,-2.52,2.20,
3.023,3.54,-8.89,3.30,1.09,-1.88,2.10,
3.023,3.54,-8.89,3.30,1.01,-1.26,2.03,
3.023,2.66,-9.38,3.29,1.01,-1.26,2.03,
3.024,1.51,-10.12,3.16,1.01,-1.26,2.03,
3.024,1.51,-10.12,3.16,0.93,-0.71,2.00,
3.024,1.51,-10.12,3.16,0.87,-0.23,2.05,
3.025,0.37,-10.92,2.87,0.87,-0.23,2.05,
3.025,-0.57,-11.65,2.53,0.87,-0.23,2.05,
3.025,-0.57,-11.65,2.53,0.82,0.18,2.17,
3.026,-1.29,-12.23,2.20,0.82,0.18,2.17,
3.026,-1.29,-12.23,2.20,0.79,0.51,2.34,
3.027,-1.86,-12.81,1.94,0.79,0.51,2.34,
3.027,-1.86,-12.81,1.94,0.77,0.76,2.56,
3.028,-1.86,-12.81,1.94,0.76,0.94,2.81,
3.028,-2.14,-13.25,1.78,0.76,0.94,2.81,
3.028,-2.12,-13.43,1.72,0.76,0.94,2.81,
3.029,-2.12,-13.43,1.72,0.77,1.06,3.07,
3.029,-1.80,-13.45,1.64,0.77,1.06,3.07,
3.03,-1.80,-13.45,1.64,0.78,1.15,3.35,
3.03,-1.80,-13.45,1.64,0.79,1.22,3.61,
3.03,-1.25,-13.61,1.50,0.79,1.22,3.61,
3.031,-0.45,-13.89,1.29,0.79,1.22,3.61,
3.031,-0.45,-13.89,1.29,0.81,1.30,3.83,
3.032,-0.45,-13.89,1.29,0.82,1.38,4.02,
3.032,0.32,-14.23,0.98,0.82,1.38,4.02,
3.032,0.32,-14.23,0.98,0.82,1.47,4.18,
3.033,1.22,-14.56,0.59,0.82,1.47,4.18,
3.033,1.22,-14.56,0.59,0.80,1.57,4.31,
3.034,2.22,-14.76,-0.02,0.80,1.57,4.31,
3.034,2.22,-14.76,-0.02,0.76,1.68,4.41,
3.034,3.17,-14.84,-0.62,0.76,1.68,4.41,
3.035,3.17,-14.84,-0.62,0.71,1.79,4.48,
3.035,3.88,-14.97,-1.29,0.71,1.79,4.48,
3.035,4.26,-15.21,-1.97,0.71,1.79,4.48,
3.036,4.26,-15.21,-1.97,0.63,1.90,4.52,
3.036,4.47,-15.47,-2.48,0.63,1.90,4.52,
3.036,4.47,-15.47,-2.48,0.54,1.99,4.56,
3.385,4.69,-15.75,-2.84,0.54,1.99,4.56,
3.386,4.69,-15.75,-2.84,0.42,2.06,4.59,
3.386,4.87,-15.97,-3.02,0.42,2.06,4.59,
3.386,4.87,-15.97,-3.02,0.30,2.13,4.62,
3.387,4.89,-16.07,-3.05,0.30,2.13,4.62,
3.387,4.89,-16.07,-3.05,0.18,2.16,4.65,
3.387,4.82,-16.17,-2.88,0.18,2.16,4.65,
3.388,4.82,-16.17,-2.88,0.07,2.17,4.67,
3.388,4.82,-16.17,-2.88,-0.03,2.14,4.69,
3.388,4.74,-16.41,-2.55,-0.03,2.14,4.69,
3.389,4.74,-16.41,-2.55,-0.11,2.07,4.71,
3.389,4.67,-16.87,-2.07,-0.11,2.07,4.71,
3.39,4.67,-16.87,-2.07,-0.16,1.98,4.75,
3.39,4.72,-17.37,-1.42,-0.16,1.98,4.75,
3.39,4.82,-17.79,-0.85,-0.16,1.98,4.75,
3.391,4.82,-17.79,-0.85,-0.19,1.87,4.80,
3.391,4.82,-17.79,-0.85,-0.19,1.75,4.85,
3.391,4.98,-18.13,-0.41,-0.19,1.75,4.85,
3.392,5.14,-18.48,0.07,-0.19,1.75,4.85,
3.392,5.14,-18.48,0.07,-0.18,1.60,4.91,
3.392,5.46,-19.03,0.64,-0.18,1.60,4.91,
3.393,5.46,-19.03,0.64,-0.16,1.43,4.98,
3.393,5.46,-19.03,0.64,-0.13,1.24,5.07,
3.393,6.08,-19.68,1.23,-0.13,1.24,5.07,
3.394,6.08,-19.68,1.23,-0.08,1.04,5.17,
3.394,7.02,-20.13,2.07,-0.08,1.04,5.17,
3.394,7.86,-20.11,3.28,-0.08,1.04,5.17,
3.395,7.86,-20.11,3.28,-0.01,0.84,5.26,
3.395,7.86,-20.11,3.28,0.10,0.66,5.33,
3.395,8.47,-19.83,4.59,0.10,0.66,5.33,
3.396,8.81,-19.53,6.18,0.10,0.66,5.33,
3.396,8.81,-19.53,6.18,0.23,0.55,5.38,
3.396,8.81,-19.53,6.18,0.42,0.51,5.44,
3.397,9.20,-19.22,8.65,0.42,0.51,5.44,
3.397,9.20,-19.22,8.65,0.69,0.56,5.54,
3.397,10.02,-19.30,11.44,0.69,0.56,5.54,
3.398,10.02,-19.30,11.44,1.06,0.69,5.65,
3.398,11.03,-19.52,14.01,1.06,0.69,5.65,
3.399,11.03,-19.52,14.01,1.55,0.86,5.76,
3.399,12.08,-19.09,15.88,1.55,0.86,5.76,
3.4,12.08,-19.09,15.88,2.15,1.03,5.84,
3.4,12.75,-17.85,16.62,2.15,1.03,5.84,
3.401,13.01,-16.25,16.25,2.15,1.03,5.84,
3.401,13.01,-16.25,16.25,2.84,1.13,5.91,
3.401,13.01,-16.25,16.25,3.58,1.10,6.00,
3.402,14.01,-14.75,14.89,3.58,1.10,6.00,
3.402,14.01,-14.75,14.89,4.33,0.90,6.13,
3.403,16.58,-13.29,12.68,4.33,0.90,6.13,
3.403,16.58,-13.29,12.68,5.10,0.52,6.22,
3.404,19.71,-11.17,9.31,5.10,0.52,6.22,
3.432,19.71,-11.17,9.31,5.82,-0.02,6.21,
3.432,22.21,-8.16,5.02,5.82,-0.02,6.21,
3.432,22.21,-8.16,5.02,6.43,-0.57,6.11,
3.433,24.04,-4.50,0.01,6.43,-0.57,6.11,
3.433,25.83,-0.74,-5.21,6.43,-0.57,6.11,
3.433,25.83,-0.74,-5.21,6.83,-1.01,5.95,
3.434,28.17,2.67,-9.62,6.83,-1.01,5.95,
3.434,28.17,2.67,-9.62,6.97,-1.26,5.73,
3.434,28.17,2.67,-9.62,6.86,-1.25,5.42,
3.435,31.04,5.31,-13.36,6.86,-1.25,5.42,
3.435,31.52,8.28,-18.70,6.86,-1.25,5.42,
3.436,31.52,8.28,-18.70,6.49,-0.99,4.96,
3.436,31.52,8.28,-18.70,5.81,-0.54,4.46,
3.436,31.78,9.69,-24.31,5.81,-0.54,4.46,
3.437,31.99,9.94,-28.88,5.81,-0.54,4.46,
3.437,31.99,9.94,-28.88,4.80,-0.00,3.96,
3.438,31.27,10.21,-31.05,4.80,-0.00,3.96,
3.438,31.27,10.21,-31.05,3.50,0.53,3.45,
3.439,28.52,10.98,-30.53,3.50,0.53,3.45,
3.439,28.52,10.98,-30.53,2.05,1.05,2.96,
3.439,24.35,11.49,-27.45,2.05,1.05,2.96,
3.44,24.35,11.49,-27.45,0.59,1.55,2.55,
3.44,24.35,11.49,-27.45,-0.77,1.98,2.29,
3.44,19.96,11.38,-22.48,-0.77,1.98,2.29,
3.441,19.96,11.38,-22.48,-1.89,2.30,2.21,
3.441,15.84,11.18,-15.49,-1.89,2.30,2.21,
3.442,10.56,12.41,0.88,-1.89,2.30,2.21,
3.442,10.56,12.41,0.88,-2.62,2.66,2.28,
3.442,10.56,12.41,0.88,-2.76,3.04,2.50,
3.443,9.39,13.30,3.22,-2.76,3.04,2.50,
3.443,9.39,13.30,3.22,-2.62,3.13,2.79,
3.443,12.03,11.80,4.96,-2.62,3.13,2.79,
3.443,12.03,11.80,4.96,-2.30,3.15,2.97,
3.444,14.01,10.72,5.84,-2.30,3.15,2.97,
3.444,14.01,10.72,5.84,-1.90,3.01,3.00,
3.444,14.18,11.57,7.96,-1.90,3.01,3.00,
3.445,14.18,11.57,7.96,-1.39,2.76,2.98,
3.445,15.11,12.57,8.40,-1.39,2.76,2.98,
3.445,16.75,13.08,6.90,-1.39,2.76,2.98,
3.446,16.75,13.08,6.90,-0.84,2.39,2.93,
3.446,17.53,13.45,5.19,-0.84,2.39,2.93,
3.446,17.53,13.45,5.19,-0.32,1.96,2.79,
3.447,17.37,13.98,3.79,-0.32,1.96,2.79,
3.447,17.37,13.98,3.79,0.12,1.52,2.59,
3.447,17.37,13.98,3.79,0.48,1.15,2.40,
3.448,17.07,14.61,2.54,0.48,1.15,2.40,
3.448,17.03,15.16,1.42,0.48,1.15,2.40,
3.448,17.03,15.16,1.42,0.77,0.85,2.24,
3.448,17.23,15.52,0.39,0.77,0.85,2.24,
3.449,17.23,15.52,0.39,0.98,0.62,2.08,
3.449,17.23,15.52,0.39,1.14,0.46,1.92,
3.449,17.70,15.68,-0.67,1.14,0.46,1.92,
3.45,18.10,15.70,-1.87,1.14,0.46,1.92,
3.45,18.10,15.70,-1.87,1.24,0.37,1.75,
3.45,18.28,15.60,-3.05,1.24,0.37,1.75,
3.451,18.28,15.60,-3.05,1.28,0.35,1.55,
3.451,18.13,15.48,-3.96,1.28,0.35,1.55,
3.451,18.13,15.48,-3.96,1.26,0.33,1.32,
3.452,18.13,15.48,-3.96,1.19,0.31,1.07,
3.452,17.69,15.09,-4.85,1.19,0.31,1.07,
3.452,16.95,14.37,-5.73,1.19,0.31,1.07,
3.452,16.95,14.37,-5.73,1.08,0.29,0.84,
3.453,16.02,13.57,-6.45,1.08,0.29,0.84,
3.453,16.02,13.57,-6.45,0.92,0.29,0.62,
3.453,16.02,13.57,-6.45,0.70,0.33,0.43,
3.454,14.99,12.71,-6.97,0.70,0.33,0.43,
3.454,14.99,12.71,-6.97,0.44,0.41,0.27,
3.454,13.94,11.89,-7.14,0.44,0.41,0.27,
3.454,12.91,11.08,-6.85,0.44,0.41,0.27,
3.455,12.91,11.08,-6.85,0.16,0.52,0.14,
3.455,12.91,11.08,-6.85,-0.12,0.64,0.03,
3.455,11.80,10.36,-6.24,-0.12,0.64,0.03,
3.456,11.80,10.36,-6.24,-0.38,0.74,-0.06,
3.456,10.76,9.62,-5.27,-0.38,0.74,-0.06,
3.456,10.76,9.62,-5.27,-0.59,0.82,-0.12,
3.457,9.93,8.86,-4.01,-0.59,0.82,-0.12,
3.457,9.93,8.86,-4.01,-0.72,0.87,-0.16,
3.457,9.38,8.25,-2.61,-0.72,0.87,-0.16,
3.458,9.38,8.25,-2.61,-0.78,0.89,-0.19,
3.458,8.93,7.58,-1.46,-0.78,0.89,-0.19,
3.458,8.93,7.58,-1.46,-0.78,0.90,-0.23,
3.459,8.42,7.00,-0.57,-0.78,0.90,-0.23,
3.459,8.42,7.00,-0.57,-0.73,0.90,-0.27,
3.459,7.92,6.39,0.05,-0.73,0.90,-0.27,
3.459,7.44,5.93,0.52,-0.73,0.90,-0.27,
3.46,7.44,5.93,0.52,-0.63,0.88,-0.30,
3.46,6.92,5.47,0.71,-0.63,0.88,-0.30,
3.46,6.92,5.47,0.71,-0.51,0.83,-0.33,
3.461,6.46,5.05,0.83,-0.51,0.83,-0.33,
3.461,6.46,5.05,0.83,-0.37,0.74,-0.36,
3.461,6.07,4.71,0.89,-0.37,0.74,-0.36,
3.462,6.07,4.71,0.89,-0.22,0.63,-0.38,
3.462,5.84,4.39,0.89,-0.22,0.63,-0.38,
3.462,5.84,4.39,0.89,-0.07,0.52,-0.40,
3.463,5.57,4.00,0.81,-0.07,0.52,-0.40,
3.463,5.57,4.00,0.81,0.06,0.44,-0.43,
3.463,5.37,3.61,0.64,0.06,0.44,-0.43,
3.463,5.37,3.61,0.64,0.19,0.38,-0.45,
3.464,5.29,3.30,0.36,0.19,0.38,-0.45,
3.464,5.29,3.30,0.36,0.30,0.34,-0.48,
3.492,5.16,3.03,0.09,0.30,0.34,-0.48,
3.492,5.16,3.03,0.09,0.40,0.31,-0.52,
3.492,4.99,2.73,-0.24,0.40,0.31,-0.52,
3.493,4.99,2.73,-0.24,0.47,0.30,-0.57,
3.493,4.84,2.42,-0.69,0.47,0.30,-0.57,
3.493,4.84,2.42,-0.69,0.54,0.30,-0.63,
3.494,4.67,1.97,-1.31,0.54,0.30,-0.63,
3.494,4.67,1.97,-1.31,0.59,0.31,-0.69,
3.495,4.35,1.36,-2.02,0.59,0.31,-0.69,
3.495,4.35,1.36,-2.02,0.61,0.33,-0.76,
3.495,3.86,0.87,-2.65,0.61,0.33,-0.76,
3.496,3.86,0.87,-2.65,0.62,0.34,-0.83,
3.496,3.20,0.44,-3.30,0.62,0.34,-0.83,
3.497,3.20,0.44,-3.30,0.59,0.36,-0.90,
3.497,2.51,0.13,-3.94,0.59,0.36,-0.90,
3.497,2.51,0.13,-3.94,0.56,0.37,-0.95,
3.498,1.79,-0.15,-4.56,0.56,0.37,-0.95,
3.498,1.79,-0.15,-4.56,0.51,0.34,-0.99,
3.498,1.79,-0.15,-4.56,0.45,0.27,-1.01,
3.499,1.18,-0.38,-5.04,0.45,0.27,-1.01,
3.499,0.73,-0.51,-5.40,0.45,0.27,-1.01,
3.5,0.73,-0.51,-5.40,0.37,0.19,-1.01,
3.5,0.73,-0.51,-5.40,0.28,0.10,-0.99,
3.5,0.40,-0.67,-5.58,0.28,0.10,-0.99,
3.501,0.18,-0.76,-5.67,0.28,0.10,-0.99,
3.501,0.18,-0.76,-5.67,0.18,0.02,-0.96,
3.501,-0.09,-0.85,-5.57,0.18,0.02,-0.96,
3.502,-0.09,-0.85,-5.57,0.08,-0.04,-0.92,
3.502,-0.36,-0.93,-5.44,0.08,-0.04,-0.92,
3.503,-0.36,-0.93,-5.44,-0.04,-0.07,-0.88,
3.503,-0.36,-0.93,-5.44,-0.16,-0.06,-0.83,
3.504,-0.57,-1.00,-5.25,-0.16,-0.06,-0.83,
3.504,-0.57,-1.00,-5.25,-0.29,-0.04,-0.79,
3.505,-0.71,-1.10,-5.02,-0.29,-0.04,-0.79,
3.505,-0.87,-1.17,-4.74,-0.29,-0.04,-0.79,
3.506,-0.87,-1.17,-4.74,-0.42,-0.00,-0.73,
3.506,-0.87,-1.17,-4.74,-0.55,0.03,-0.68,
3.507,-1.09,-1.23,-4.37,-0.55,0.03,-0.68,
3.507,-1.09,-1.23,-4.37,-0.66,0.07,-0.61,
3.507,-1.33,-1.31,-3.98,-0.66,0.07,-0.61,
3.508,-1.33,-1.31,-3.98,-0.78,0.10,-0.54,
3.508,-1.44,-1.39,-3.60,-0.78,0.10,-0.54,
3.551,-1.44,-1.39,-3.60,-0.88,0.13,-0.46,
3.551,-1.35,-1.50,-3.15,-0.88,0.13,-0.46,
3.552,-1.35,-1.50,-3.15,-0.97,0.16,-0.39,
3.552,-1.24,-1.64,-2.61,-0.97,0.16,-0.39,
3.553,-1.24,-1.64,-2.61,-1.04,0.19,-0.32,
3.553,-1.08,-1.72,-1.94,-1.04,0.19,-0.32,
3.553,-1.08,-1.72,-1.94,-1.08,0.22,-0.26,
3.554,-0.94,-1.78,-1.18,-1.08,0.22,-0.26,
3.554,-0.94,-1.78,-1.18,-1.10,0.25,-0.21,
3.555,-0.68,-1.78,-0.47,-1.10,0.25,-0.21,
3.555,-0.68,-1.78,-0.47,-1.09,0.29,-0.17,
3.555,-0.25,-1.77,0.07,-1.09,0.29,-0.17,
3.556,-0.25,-1.77,0.07,-1.06,0.34,-0.15,
3.556,0.14,-1.76,0.41,-1.06,0.34,-0.15,
3.557,0.47,-1.70,0.63,-1.06,0.34,-0.15,
3.557,0.47,-1.70,0.63,-1.02,0.37,-0.15,
3.557,0.47,-1.70,0.63,-0.98,0.40,-0.17,
3.558,0.78,-1.63,0.78,-0.98,0.40,-0.17,
3.558,0.78,-1.63,0.78,-0.92,0.41,-0.20,
3.558,1.01,-1.53,0.92,-0.92,0.41,-0.20,
3.559,1.01,-1.53,0.92,-0.86,0.40,-0.24,
3.559,1.11,-1.50,1.06,-0.86,0.40,-0.24,
3.713,1.04,-1.52,1.16,-0.86,0.40,-0.24,
3.714,1.04,-1.52,1.16,-0.78,0.38,-0.30,
3.714,0.83,-1.44,1.14,-0.78,0.38,-0.30,
3.714,0.83,-1.44,1.14,-0.70,0.33,-0.35,
3.715,0.83,-1.44,1.14,-0.63,0.29,-0.40,
3.715,0.64,-1.40,1.09,-0.63,0.29,-0.40,
3.716,0.64,-1.40,1.09,-0.56,0.25,-0.44,
3.716,0.62,-1.34,1.00,-0.56,0.25,-0.44,
3.716,0.62,-1.34,1.00,-0.49,0.22,-0.48,
3.717,0.57,-1.34,0.90,-0.49,0.22,-0.48,
3.717,0.45,-1.54,0.74,-0.49,0.22,-0.48,
3.717,0.45,-1.54,0.74,-0.44,0.20,-0.53,
3.718,0.20,-1.79,0.54,-0.44,0.20,-0.53,
3.718,0.20,-1.79,0.54,-0.40,0.21,-0.57,
3.718,-0.13,-2.04,0.35,-0.40,0.21,-0.57,
3.719,-0.13,-2.04,0.35,-0.38,0.25,-0.61,
3.719,-0.59,-2.35,0.26,-0.38,0.25,-0.61,
3.72,-0.59,-2.35,0.26,-0.37,0.29,-0.64,
3.72,-1.04,-2.60,0.27,-0.37,0.29,-0.64,
3.72,-1.04,-2.60,0.27,-0.37,0.34,-0.65,
3.721,-1.52,-2.88,0.30,-0.37,0.34,-0.65,
3.721,-1.52,-2.88,0.30,-0.37,0.39,-0.65,
3.722,-1.98,-3.23,0.39,-0.37,0.39,-0.65,
3.722,-1.98,-3.23,0.39,-0.37,0.43,-0.63,
3.722,-2.43,-3.48,0.61,-0.37,0.43,-0.63,
3.723,-2.43,-3.48,0.61,-0.38,0.46,-0.59,
3.723,-2.78,-3.65,0.89,-0.38,0.46,-0.59,
3.724,-2.78,-3.65,0.89,-0.37,0.48,-0.53,
3.724,-2.97,-3.75,1.17,-0.37,0.48,-0.53,
3.724,-2.97,-3.75,1.17,-0.34,0.50,-0.46,
3.725,-2.99,-3.90,1.45,-0.34,0.50,-0.46,
3.725,-2.99,-3.90,1.45,-0.31,0.51,-0.39,
3.725,-2.89,-4.11,1.57,-0.31,0.51,-0.39,
3.726,-2.89,-4.11,1.57,-0.26,0.52,-0.32,
3.726,-2.89,-4.11,1.57,-0.20,0.53,-0.25,
3.727,-2.58,-4.38,1.73,-0.20,0.53,-0.25,
3.754,-2.58,-4.38,1.73,-0.12,0.56,-0.21,
3.754,-2.22,-4.64,1.78,-0.12,0.56,-0.21,
3.755,-2.22,-4.64,1.78,-0.04,0.58,-0.20,
3.755,-1.92,-4.88,1.66,-0.04,0.58,-0.20,
3.756,-1.83,-5.17,1.33,-0.04,0.58,-0.20,
3.758,-1.83,-5.17,1.33,0.05,0.59,-0.21,
3.758,-1.83,-5.17,1.33,0.13,0.60,-0.24,
3.759,-1.92,-5.50,0.85,0.13,0.60,-0.24,
3.759,-1.92,-5.50,0.85,0.20,0.59,-0.27,
3.76,-2.24,-5.87,0.26,0.20,0.59,-0.27,
3.76,-2.70,-6.24,-0.38,0.20,0.59,-0.27,
3.76,-2.70,-6.24,-0.38,0.24,0.57,-0.30,
3.76,-3.26,-6.64,-0.98,0.24,0.57,-0.30,
3.761,-3.26,-6.64,-0.98,0.25,0.55,-0.34,
3.761,-3.94,-7.07,-1.49,0.25,0.55,-0.34,
3.761,-3.94,-7.07,-1.49,0.24,0.52,-0.36,
3.762,-4.69,-7.46,-2.00,0.24,0.52,-0.36,
3.762,-4.69,-7.46,-2.00,0.20,0.49,-0.37,
3.762,-5.45,-7.89,-2.35,0.20,0.49,-0.37,
3.763,-5.45,-7.89,-2.35,0.12,0.46,-0.37,
3.763,-6.19,-8.40,-2.67,0.12,0.46,-0.37,
3.763,-6.19,-8.40,-2.67,0.03,0.44,-0.36,
3.764,-7.01,-9.04,-2.98,0.03,0.44,-0.36,
3.764,-7.01,-9.04,-2.98,-0.08,0.42,-0.34,
3.764,-7.84,-9.77,-3.29,-0.08,0.42,-0.34,
3.765,-7.84,-9.77,-3.29,-0.21,0.40,-0.29,
3.765,-8.62,-10.48,-3.42,-0.21,0.40,-0.29,
3.765,-8.62,-10.48,-3.42,-0.35,0.39,-0.23,
3.766,-9.28,-11.05,-3.36,-0.35,0.39,-0.23,
3.766,-9.28,-11.05,-3.36,-0.52,0.40,-0.13,
3.767,-9.72,-11.65,-3.15,-0.52,0.40,-0.13,
3.767,-9.72,-11.65,-3.15,-0.68,0.42,-0.03,
3.767,-9.97,-12.26,-2.82,-0.68,0.42,-0.03,
3.768,-9.97,-12.26,-2.82,-0.84,0.44,0.10,
3.768,-10.14,-12.85,-2.43,-0.84,0.44,0.10,
3.769,-10.14,-12.85,-2.43,-0.98,0.46,0.22,
3.769,-10.32,-13.35,-2.05,-0.98,0.46,0.22,
3.769,-10.32,-13.35,-2.05,-1.10,0.47,0.35,
3.77,-10.32,-13.35,-2.05,-1.20,0.47,0.47,
3.77,-10.44,-13.71,-1.59,-1.20,0.47,0.47,
3.77,-10.60,-13.92,-1.09,-1.20,0.47,0.47,
3.771,-10.60,-13.92,-1.09,-1.27,0.46,0.61,
3.771,-10.69,-14.15,-0.54,-1.27,0.46,0.61,
3.772,-10.69,-14.15,-0.54,-1.31,0.44,0.75,
3.772,-10.52,-14.46,0.04,-1.31,0.44,0.75,
3.772,-10.52,-14.46,0.04,-1.32,0.42,0.90,
3.773,-10.31,-14.82,0.64,-1.32,0.42,0.90,
3.773,-10.31,-14.82,0.64,-1.28,0.38,1.06,
3.774,-10.31,-14.82,0.64,-1.20,0.33,1.21,
3.774,-10.10,-15.08,1.02,-1.20,0.33,1.21,
3.774,-9.87,-15.24,1.15,-1.20,0.33,1.21,
3.775,-9.87,-15.24,1.15,-1.08,0.25,1.37,
3.831,-9.51,-15.39,1.11,-1.08,0.25,1.37,
3.831,-9.51,-15.39,1.11,-0.94,0.15,1.54,
3.832,-9.02,-15.51,0.99,-0.94,0.15,1.54,
3.832,-9.02,-15.51,0.99,-0.80,0.04,1.71,
3.832,-9.02,-15.51,0.99,-0.65,-0.06,1.88,
3.833,-8.32,-15.59,0.80,-0.65,-0.06,1.88,
3.833,-7.64,-15.57,0.74,-0.65,-0.06,1.88,
3.833,-7.64,-15.57,0.74,-0.51,-0.17,2.04,
3.834,-7.64,-15.57,0.74,-0.37,-0.26,2.20,
3.834,-6.95,-15.59,0.75,-0.37,-0.26,2.20,
3.834,-6.95,-15.59,0.75,-0.22,-0.34,2.33,
3.835,-6.25,-15.65,0.83,-0.22,-0.34,2.33,
3.835,-5.61,-15.74,0.77,-0.22,-0.34,2.33,
3.836,-5.61,-15.74,0.77,-0.06,-0.42,2.45,
3.836,-5.03,-15.90,0.67,-0.06,-0.42,2.45,
3.836,-5.03,-15.90,0.67,0.09,-0.50,2.56,
3.837,-5.03,-15.90,0.67,0.25,-0.57,2.65,
3.837,-4.53,-16.01,0.52,0.25,-0.57,2.65,
3.837,-4.12,-16.12,0.40,0.25,-0.57,2.65,
3.838,-4.12,-16.12,0.40,0.41,-0.64,2.74,
3.838,-3.72,-16.24,0.28,0.41,-0.64,2.74,
3.838,-3.72,-16.24,0.28,0.56,-0.71,2.84,
3.839,-3.35,-16.45,0.11,0.56,-0.71,2.84,
3.839,-3.35,-16.45,0.11,0.72,-0.81,2.93,
3.839,-2.99,-16.65,-0.06,0.72,-0.81,2.93,
3.84,-2.99,-16.65,-0.06,0.88,-0.93,3.02,
3.843,-2.59,-16.84,-0.31,0.88,-0.93,3.02,
3.844,-2.59,-16.84,-0.31,1.04,-1.08,3.12,
3.848,-2.04,-17.00,-0.57,1.04,-1.08,3.12,
3.848,-2.04,-17.00,-0.57,1.21,-1.25,3.23,
3.856,-1.50,-17.24,-0.90,1.21,-1.25,3.23,
3.857,-1.50,-17.24,-0.90,1.37,-1.42,3.33,
3.858,-0.88,-17.43,-1.23,1.37,-1.42,3.33,
3.858,-0.88,-17.43,-1.23,1.52,-1.59,3.42,
3.862,-0.88,-17.43,-1.23,1.66,-1.74,3.50,
3.862,-0.32,-17.54,-1.57,1.66,-1.74,3.50,
3.887,0.18,-17.46,-1.83,1.66,-1.74,3.50,
3.887,0.18,-17.46,-1.83,1.78,-1.86,3.58,
3.888,0.18,-17.46,-1.83,1.88,-1.97,3.64,
3.888,0.72,-16.94,-2.00,1.88,-1.97,3.64,
3.888,1.31,-16.36,-1.81,1.88,-1.97,3.64,
3.889,1.31,-16.36,-1.81,1.98,-2.07,3.69,
3.889,1.31,-16.36,-1.81,2.11,-2.14,3.72,
3.89,1.93,-16.06,-1.40,2.11,-2.14,3.72,
3.89,1.93,-16.06,-1.40,2.28,-2.19,3.73,
3.89,2.58,-16.15,-0.95,2.28,-2.19,3.73,
3.891,3.15,-16.30,-0.67,2.28,-2.19,3.73,
3.891,3.15,-16.30,-0.67,2.51,-2.27,3.74,
3.924,3.41,-16.35,-0.89,2.51,-2.27,3.74,
3.925,3.41,-16.35,-0.89,2.76,-2.37,3.74,
3.925,3.42,-16.31,-1.57,2.76,-2.37,3.74,
3.925,3.42,-16.31,-1.57,3.01,-2.46,3.74,
3.926,3.42,-16.31,-1.57,3.22,-2.54,3.76,
3.926,3.34,-16.17,-2.71,3.22,-2.54,3.76,
3.927,3.34,-16.17,-2.71,3.35,-2.58,3.81,
3.927,3.42,-16.11,-4.00,3.35,-2.58,3.81,
3.927,3.77,-16.14,-5.11,3.35,-2.58,3.81,
3.928,3.77,-16.14,-5.11,3.39,-2.59,3.88,
3.928,4.10,-16.17,-5.82,3.39,-2.59,3.88,
3.929,4.10,-16.17,-5.82,3.35,-2.58,3.95,
3.929,4.45,-16.18,-6.27,3.35,-2.58,3.95,
3.93,4.45,-16.18,-6.27,3.24,-2.54,4.04,
3.93,4.45,-16.18,-6.27,3.09,-2.48,4.13,
3.93,4.88,-16.06,-6.54,3.09,-2.48,4.13,
3.983,4.88,-16.06,-6.54,2.90,-2.40,4.24,
3.984,5.22,-15.88,-6.71,2.90,-2.40,4.24,
3.984,5.22,-15.88,-6.71,2.66,-2.32,4.36,
3.984,5.59,-15.77,-6.82,2.66,-2.32,4.36,
3.985,5.94,-15.75,-6.60,2.66,-2.32,4.36,
3.985,5.94,-15.75,-6.60,2.40,-2.22,4.49,
3.986,6.30,-15.70,-6.08,2.40,-2.22,4.49,
3.986,6.30,-15.70,-6.08,2.12,-2.10,4.63,
3.987,6.30,-15.70,-6.08,1.83,-1.95,4.78,
3.987,6.66,-15.32,-5.41,1.83,-1.95,4.78,
3.987,6.66,-15.32,-5.41,1.54,-1.76,4.94,
3.988,7.17,-14.53,-4.58,1.54,-1.76,4.94,
3.988,7.17,-14.53,-4.58,1.29,-1.48,5.09,
3.989,7.77,-13.70,-3.74,1.29,-1.48,5.09,
3.989,8.51,-13.04,-2.90,1.29,-1.48,5.09,
3.99,8.51,-13.04,-2.90,1.09,-1.10,5.24,
3.99,9.35,-12.55,-2.33,1.09,-1.10,5.24,
3.99,9.35,-12.55,-2.33,0.93,-0.69,5.38,
3.991,10.19,-12.02,-2.30,0.93,-0.69,5.38,
3.993,10.19,-12.02,-2.30,0.81,-0.30,5.51,
3.993,11.04,-11.40,-2.94,0.81,-0.30,5.51,
3.993,11.04,-11.40,-2.94,0.69,0.07,5.64,
3.994,11.04,-11.40,-2.94,0.54,0.43,5.76,
3.994,12.12,-10.94,-4.05,0.54,0.43,5.76,
3.994,12.12,-10.94,-4.05,0.34,0.75,5.87,
3.995,13.53,-10.62,-5.30,0.34,0.75,5.87,
4.018,14.88,-10.49,-6.51,0.34,0.75,5.87,
4.019,14.88,-10.49,-6.51,0.06,0.99,5.95,
4.02,15.83,-10.88,-7.53,0.06,0.99,5.95,
4.021,15.83,-10.88,-7.53,-0.28,1.12,5.98,
4.022,16.37,-11.79,-8.11,-0.28,1.12,5.98,
4.023,16.37,-11.79,-8.11,-0.70,1.14,6.00,
4.024,16.63,-13.02,-7.64,-0.70,1.14,6.00,
4.025,16.63,-13.02,-7.64,-1.17,1.04,6.02,
4.026,16.63,-13.02,-7.64,-1.63,0.78,6.07,
4.026,16.87,-14.18,-5.69,-1.63,0.78,6.07,
4.028,17.09,-14.94,-2.42,-1.63,0.78,6.07,
4.029,17.09,-14.94,-2.42,-2.00,0.31,6.15,
4.031,17.09,-14.94,-2.42,-2.18,-0.34,6.29,
4.032,17.25,-15.32,1.45,-2.18,-0.34,6.29,
4.032,17.52,-15.48,5.41,-2.18,-0.34,6.29,
4.033,17.52,-15.48,5.41,-2.16,-1.12,6.48,
4.1,17.52,-15.48,5.41,-1.95,-1.92,6.75,
4.1,18.78,-14.93,9.17,-1.95,-1.92,6.75,
4.1,21.48,-13.40,12.79,-1.95,-1.92,6.75,
4.101,21.48,-13.40,12.79,-1.59,-2.61,7.06,
4.101,21.48,-13.40,12.79,-1.09,-3.05,7.34,
4.102,24.53,-11.30,15.51,-1.09,-3.05,7.34,
4.102,24.53,-11.30,15.51,-0.53,-3.13,7.54,
4.102,27.59,-8.89,16.44,-0.53,-3.13,7.54,
4.103,27.59,-8.89,16.44,-0.02,-2.77,7.66,
4.103,31.17,-6.15,15.80,-0.02,-2.77,7.66,
4.104,31.28,-3.14,14.38,-0.02,-2.77,7.66,
4.104,31.28,-3.14,14.38,0.38,-2.01,7.64,
4.104,31.28,-3.14,14.38,0.63,-1.02,7.45,
4.105,31.39,-0.03,12.89,0.63,-1.02,7.45,
4.105,31.39,-0.03,12.89,0.75,-0.02,7.10,
4.105,31.48,2.98,11.48,0.75,-0.02,7.10,
4.106,31.56,5.35,10.29,0.75,-0.02,7.10,
4.106,31.56,5.35,10.29,0.76,0.84,6.62,
4.106,31.62,7.02,9.56,0.76,0.84,6.62,
4.107,31.62,7.02,9.56,0.73,1.53,6.10,
4.107,31.62,7.02,9.56,0.69,2.02,5.56,
4.107,31.67,8.23,9.89,0.69,2.02,5.56,
4.108,31.71,9.30,11.23,0.69,2.02,5.56,
4.108,31.71,9.30,11.23,0.75,2.28,5.06,
4.108,31.74,10.37,13.05,0.75,2.28,5.06,
4.109,31.74,10.37,13.05,0.98,2.29,4.63,
4.109,31.77,11.39,14.36,0.98,2.29,4.63,
4.11,31.77,11.39,14.36,1.41,2.07,4.24,
4.11,31.81,12.30,14.57,1.41,2.07,4.24,
4.11,31.81,12.30,14.57,2.03,1.66,3.87,
4.111,31.84,13.16,13.20,2.03,1.66,3.87,
4.111,31.84,13.16,13.20,2.76,1.16,3.49,
4.116,31.87,13.92,10.55,2.76,1.16,3.49,
4.117,31.87,13.92,10.55,3.50,0.69,3.07,
4.125,31.72,14.31,6.97,3.50,0.69,3.07,
4.126,31.72,14.31,6.97,4.18,0.34,2.58,
4.126,31.72,14.31,6.97,4.71,0.13,2.07,
4.126,30.06,14.47,2.69,4.71,0.13,2.07,
4.131,27.50,14.42,-1.77,4.71,0.13,2.07,
4.132,27.50,14.42,-1.77,5.07,0.11,1.59,
4.151,27.50,14.42,-1.77,5.24,0.26,1.17,
4.151,24.30,14.47,-5.54,5.24,0.26,1.17,
4.184,24.30,14.47,-5.54,5.30,0.71,0.81,
4.185,17.45,20.87,-15.48,5.30,0.71,0.81,
4.185,17.45,20.87,-15.48,5.12,2.71,0.97,
4.186,10.40,31.89,-37.35,5.12,2.71,0.97,
4.187,10.40,31.89,-37.35,3.66,6.17,2.23,
4.187,11.32,33.22,-37.63,3.66,6.17,2.23,
4.188,11.32,33.22,-37.63,1.30,9.39,3.38,
4.188,24.73,30.66,-37.95,1.30,9.39,3.38,
4.189,24.73,30.66,-37.95,-1.03,10.16,3.62,
4.19,31.94,29.92,-38.24,-1.03,10.16,3.62,
4.191,31.94,29.92,-38.24,-1.74,7.48,2.79,
4.191,31.96,29.08,-34.41,-1.74,7.48,2.79,
4.192,31.94,22.05,-34.12,-1.74,7.48,2.79,
4.193,31.94,22.05,-34.12,-1.36,4.56,1.31,
4.193,30.45,21.77,-29.90,-1.36,4.56,1.31,
4.194,30.45,21.77,-29.90,-1.37,3.58,0.16,
4.194,30.45,21.77,-29.90,-1.50,2.74,-0.60,
4.195,19.81,21.71,-21.84,-1.50,2.74,-0.60,
4.195,14.57,18.74,-10.27,-1.50,2.74,-0.60,
4.196,14.57,18.74,-10.27,-1.48,1.68,-0.94,
4.196,12.90,14.89,-5.19,-1.48,1.68,-0.94,
4.197,12.90,14.89,-5.19,-1.16,0.53,-1.14,
4.197,11.79,12.05,-2.17,-1.16,0.53,-1.14,
4.198,11.79,12.05,-2.17,-0.72,-0.85,-1.28,
4.198,9.88,10.35,-0.38,-0.72,-0.85,-1.28,
4.199,9.88,10.35,-0.38,-0.27,-1.99,-1.41,
4.22,8.31,8.94,1.58,-0.27,-1.99,-1.41,
4.221,8.31,8.94,1.58,0.10,-2.81,-1.53,
4.221,7.62,7.32,3.67,0.10,-2.81,-1.53,
4.221,7.62,7.32,3.67,0.37,-3.29,-1.60,
4.222,7.14,5.99,4.98,0.37,-3.29,-1.60,
4.222,7.14,5.99,4.98,0.58,-3.47,-1.66,
4.222,6.43,4.90,5.48,0.58,-3.47,-1.66,
4.223,6.43,4.90,5.48,0.71,-3.36,-1.74,
4.223,5.28,3.68,5.58,0.71,-3.36,-1.74,
4.224,5.28,3.68,5.58,0.76,-3.08,-1.82,
4.228,3.54,2.58,5.82,0.76,-3.08,-1.82,
4.228,3.54,2.58,5.82,0.73,-2.68,-1.91,
4.238,1.37,1.63,6.05,0.73,-2.68,-1.91,
4.239,1.37,1.63,6.05,0.65,-2.25,-1.95,
4.24,-0.86,0.88,5.81,0.65,-2.25,-1.95,
4.24,-0.86,0.88,5.81,0.55,-1.78,-1.92,
4.245,-0.86,0.88,5.81,0.42,-1.26,-1.80,
4.245,-2.38,0.19,5.12,0.42,-1.26,-1.80,
4.268,-2.38,0.19,5.12,0.28,-0.75,-1.61,
4.268,-3.01,-0.36,4.54,0.28,-0.75,-1.61,
4.27,-3.01,-0.36,4.54,0.15,-0.32,-1.41,
4.275,-2.81,-0.74,4.06,0.15,-0.32,-1.41,
4.275,-2.30,-1.25,3.66,0.15,-0.32,-1.41,
4.276,-2.30,-1.25,3.66,0.03,0.01,-1.23,
4.276,-2.30,-1.25,3.66,-0.06,0.21,-1.09,
4.276,-1.96,-1.75,3.57,-0.06,0.21,-1.09,
4.277,-1.83,-2.10,3.71,-0.06,0.21,-1.09,
4.277,-1.83,-2.10,3.71,-0.13,0.31,-0.99,
4.278,-1.74,-2.34,3.88,-0.13,0.31,-0.99,
4.278,-1.74,-2.34,3.88,-0.16,0.32,-0.89,
4.278,-1.74,-2.34,3.88,-0.16,0.28,-0.81,
4.279,-1.62,-2.60,4.02,-0.16,0.28,-0.81,
4.415,-1.36,-2.88,3.89,-0.16,0.28,-0.81,
4.416,-1.36,-2.88,3.89,-0.14,0.21,-0.73,
4.416,-0.93,-3.06,3.53,-0.14,0.21,-0.73,
4.417,-0.93,-3.06,3.53,-0.10,0.10,-0.68,
4.417,-0.43,-3.07,3.15,-0.10,0.10,-0.68,
4.417,-0.43,-3.07,3.15,-0.06,-0.04,-0.66,
4.418,-0.43,-3.07,3.15,-0.04,-0.21,-0.66,
4.418,0.04,-3.15,2.91,-0.04,-0.21,-0.66,
4.419,0.04,-3.15,2.91,-0.02,-0.36,-0.70,
4.419,0.35,-3.32,2.77,-0.02,-0.36,-0.70,
4.42,0.35,-3.32,2.77,-0.01,-0.51,-0.76,
4.42,0.44,-3.40,2.77,-0.01,-0.51,-0.76,
4.42,0.44,-3.40,2.77,-0.01,-0.63,-0.82,
4.421,0.30,-3.38,2.69,-0.01,-0.63,-0.82,
4.421,-0.14,-3.27,2.35,-0.01,-0.63,-0.82,
4.422,-0.14,-3.27,2.35,-0.02,-0.71,-0.88,
4.422,-0.59,-3.26,1.94,-0.02,-0.71,-0.88,
4.423,-0.59,-3.26,1.94,-0.06,-0.74,-0.91,
4.423,-0.59,-3.26,1.94,-0.14,-0.74,-0.91,
4.423,-0.84,-3.21,1.78,-0.14,-0.74,-0.91,
4.424,-0.84,-3.21,1.78,-0.24,-0.69,-0.89,
4.424,-1.05,-3.21,1.73,-0.24,-0.69,-0.89,
4.425,-1.05,-3.21,1.73,-0.35,-0.60,-0.87,
4.425,-1.32,-3.29,1.75,-0.35,-0.60,-0.87,
4.425,-1.32,-3.29,1.75,-0.48,-0.50,-0.83,
4.426,-1.56,-3.25,1.90,-0.48,-0.50,-0.83,
4.426,-1.63,-3.17,2.24,-0.48,-0.50,-0.83,
4.427,-1.63,-3.17,2.24,-0.59,-0.37,-0.78,
4.427,-1.63,-3.17,2.24,-0.70,-0.26,-0.73,
4.428,-1.83,-3.05,2.76,-0.70,-0.26,-0.73,
4.428,-1.97,-2.83,3.44,-0.70,-0.26,-0.73,
4.428,-1.97,-2.83,3.44,-0.77,-0.16,-0.67,
4.429,-2.12,-2.59,4.14,-0.77,-0.16,-0.67,
4.429,-2.12,-2.59,4.14,-0.80,-0.08,-0.60,
4.43,-2.10,-2.37,4.67,-0.80,-0.08,-0.60,
4.43,-2.10,-2.37,4.67,-0.79,-0.01,-0.53,
4.431,-1.98,-2.26,5.06,-0.79,-0.01,-0.53,
4.431,-1.98,-2.26,5.06,-0.74,0.04,-0.47,
4.431,-1.74,-2.15,5.28,-0.74,0.04,-0.47,
4.432,-1.74,-2.15,5.28,-0.66,0.08,-0.40,
4.432,-1.44,-2.07,5.28,-0.66,0.08,-0.40,
4.433,-1.44,-2.07,5.28,-0.56,0.12,-0.35,
4.46,-1.17,-1.97,5.12,-0.56,0.12,-0.35,
4.461,-1.17,-1.97,5.12,-0.46,0.18,-0.31,
4.461,-0.99,-1.73,4.78,-0.46,0.18,-0.31,
4.462,-0.99,-1.73,4.78,-0.35,0.24,-0.28,
4.462,-0.99,-1.73,4.78,-0.24,0.33,-0.25,
4.462,-0.85,-1.48,4.40,-0.24,0.33,-0.25,
4.463,-0.85,-1.48,4.40,-0.15,0.41,-0.23,
4.463,-0.73,-1.18,3.98,-0.15,0.41,-0.23,
4.464,-0.73,-1.18,3.98,-0.06,0.50,-0.22,
4.464,-0.60,-1.00,3.64,-0.06,0.50,-0.22,
4.464,-0.60,-1.00,3.64,0.03,0.57,-0.21,
4.466,-0.48,-0.97,2.97,0.03,0.57,-0.21,
4.467,-0.53,-0.94,2.30,0.03,0.57,-0.21,
4.467,-0.53,-0.94,2.30,0.09,0.61,-0.21,
4.467,-0.56,-0.91,1.75,0.09,0.61,-0.21,
4.467,-0.56,-0.91,1.75,0.14,0.64,-0.21,
4.468,-0.61,-0.83,1.35,0.14,0.64,-0.21,
4.468,-0.61,-0.83,1.35,0.17,0.68,-0.22,
4.468,-0.61,-0.83,1.35,0.19,0.72,-0.23,
4.469,-0.53,-0.77,0.94,0.19,0.72,-0.23,
4.469,-0.46,-0.63,0.44,0.19,0.72,-0.23,
4.469,-0.46,-0.63,0.44,0.20,0.74,-0.25,
4.47,-0.46,-0.63,0.44,0.19,0.76,-0.27,
4.47,-0.58,-0.50,0.11,0.19,0.76,-0.27,
4.471,-0.93,-0.43,-0.14,0.19,0.76,-0.27,
4.471,-0.93,-0.43,-0.14,0.18,0.77,-0.29,
4.471,-1.24,-0.45,-0.29,0.18,0.77,-0.29,
4.471,-1.24,-0.45,-0.29,0.18,0.76,-0.30,
4.472,-1.35,-0.51,-0.48,0.18,0.76,-0.30,
4.472,-1.35,-0.51,-0.48,0.18,0.72,-0.30,
4.472,-1.35,-0.51,-0.48,0.19,0.67,-0.29,
4.473,-1.39,-0.57,-0.59,0.19,0.67,-0.29,
4.473,-1.39,-0.57,-0.59,0.21,0.59,-0.29,
4.473,-1.45,-0.59,-0.72,0.21,0.59,-0.29,
4.474,-1.59,-0.60,-0.85,0.21,0.59,-0.29,
4.474,-1.59,-0.60,-0.85,0.24,0.52,-0.29,
4.474,-1.59,-0.60,-0.85,0.27,0.44,-0.28,
4.475,-1.63,-0.62,-1.02,0.27,0.44,-0.28,
4.576,-1.63,-0.62,-1.02,0.29,0.38,-0.27,
4.577,-1.68,-0.67,-1.29,0.29,0.38,-0.27,
4.577,-1.68,-0.67,-1.29,0.30,0.33,-0.26,
4.577,-1.72,-0.76,-1.51,0.30,0.33,-0.26,
4.578,-1.72,-0.76,-1.51,0.30,0.29,-0.24,
4.578,-1.75,-0.85,-1.68,0.30,0.29,-0.24,
4.578,-1.86,-0.86,-1.83,0.30,0.29,-0.24,
4.579,-1.86,-0.86,-1.83,0.29,0.27,-0.22,
4.579,-1.98,-0.88,-2.01,0.29,0.27,-0.22,
4.58,-1.98,-0.88,-2.01,0.27,0.26,-0.20,
4.58,-2.09,-0.84,-2.22,0.27,0.26,-0.20,
4.58,-2.09,-0.84,-2.22,0.24,0.27,-0.17,
4.581,-2.23,-0.83,-2.37,0.24,0.27,-0.17,
4.581,-2.23,-0.83,-2.37,0.21,0.29,-0.14,
4.581,-2.24,-0.83,-2.50,0.21,0.29,-0.14,
4.582,-2.24,-0.83,-2.50,0.16,0.32,-0.10,
4.582,-2.16,-0.86,-2.64,0.16,0.32,-0.10,
4.583,-2.16,-0.86,-2.64,0.11,0.35,-0.06,
4.583,-2.16,-0.86,-2.64,0.05,0.39,-0.01,
4.583,-2.08,-0.84,-2.77,0.05,0.39,-0.01,
4.584,-2.08,-0.84,-2.77,-0.01,0.41,0.02,
4.584,-2.08,-0.84,-2.95,-0.01,0.41,0.02,
4.584,-2.12,-0.87,-3.00,-0.01,0.41,0.02,
4.585,-2.12,-0.87,-3.00,-0.08,0.45,0.06,
4.585,-2.14,-0.86,-3.01,-0.08,0.45,0.06,
4.586,-2.14,-0.86,-3.01,-0.14,0.48,0.11,
4.586,-2.14,-0.86,-3.01,-0.21,0.52,0.17,
4.586,-2.02,-0.82,-2.98,-0.21,0.52,0.17,
4.587,-2.02,-0.82,-2.98,-0.28,0.54,0.22,
4.587,-1.78,-0.82,-2.86,-0.28,0.54,0.22,
4.587,-1.48,-0.79,-2.70,-0.28,0.54,0.22,
4.588,-1.48,-0.79,-2.70,-0.35,0.56,0.27,
4.588,-1.13,-0.82,-2.52,-0.35,0.56,0.27,
4.589,-1.13,-0.82,-2.52,-0.41,0.58,0.31,
4.589,-1.13,-0.82,-2.52,-0.47,0.60,0.33,
4.589,-0.85,-0.81,-2.32,-0.47,0.60,0.33,
4.59,-0.85,-0.81,-2.32,-0.53,0.63,0.34,
4.59,-0.60,-0.84,-2.13,-0.53,0.63,0.34,
4.59,-0.60,-0.84,-2.13,-0.58,0.67,0.34,
4.591,-0.54,-0.88,-1.91,-0.58,0.67,0.34,
4.591,-0.63,-0.88,-1.69,-0.58,0.67,0.34,
4.591,-0.63,-0.88,-1.69,-0.63,0.73,0.34,
4.592,-0.63,-0.88,-1.69,-0.66,0.78,0.34,
4.592,-0.76,-0.83,-1.48,-0.66,0.78,0.34,
4.593,-0.76,-0.83,-1.48,-0.69,0.82,0.34,
4.593,-0.84,-0.72,-1.27,-0.69,0.82,0.34,
4.593,-0.82,-0.63,-1.09,-0.69,0.82,0.34,
4.594,-0.82,-0.63,-1.09,-0.70,0.85,0.35,
4.594,-0.77,-0.60,-0.99,-0.70,0.85,0.35,
4.594,-0.77,-0.60,-0.99,-0.70,0.85,0.36,
4.607,-0.77,-0.60,-0.99,-0.68,0.84,0.36,
4.608,-0.68,-0.65,-0.96,-0.68,0.84,0.36,
4.608,-0.46,-0.66,-0.98,-0.68,0.84,0.36,
4.608,-0.46,-0.66,-0.98,-0.67,0.84,0.37,
4.609,-0.22,-0.64,-0.99,-0.67,0.84,0.37,
4.609,-0.22,-0.64,-0.99,-0.65,0.82,0.36,
4.613,-0.22,-0.64,-0.99,-0.63,0.79,0.35,
4.613,-0.15,-0.69,-0.98,-0.63,0.79,0.35,
4.618,-0.15,-0.69,-0.98,-0.61,0.75,0.32,
4.618,-0.16,-0.75,-1.00,-0.61,0.75,0.32,
4.627,-0.16,-0.75,-1.00,-0.58,0.71,0.31,
4.628,-0.20,-0.80,-1.01,-0.58,0.71,0.31,
4.801,-0.21,-0.78,-1.04,-0.58,0.71,0.31,
4.802,-0.21,-0.78,-1.04,-0.57,0.67,0.29,
4.802,-0.21,-0.78,-1.04,-0.55,0.63,0.28,
4.803,-0.23,-0.83,-1.08,-0.55,0.63,0.28,
4.803,-0.23,-0.83,-1.08,-0.52,0.58,0.26,
4.804,-0.27,-0.93,-1.02,-0.52,0.58,0.26,
4.804,-0.27,-0.93,-1.02,-0.50,0.52,0.24,
4.805,-0.30,-1.01,-1.08,-0.50,0.52,0.24,
4.805,-0.30,-1.01,-1.08,-0.47,0.46,0.23,
4.805,-0.40,-1.10,-1.18,-0.47,0.46,0.23,
4.806,-0.40,-1.10,-1.18,-0.45,0.40,0.22,
4.806,-0.48,-1.15,-1.30,-0.45,0.40,0.22,
4.807,-0.58,-1.24,-1.45,-0.45,0.40,0.22,
4.808,-0.58,-1.24,-1.45,-0.44,0.35,0.21,
4.808,-0.72,-1.42,-1.51,-0.44,0.35,0.21,
4.809,-0.72,-1.42,-1.51,-0.44,0.31,0.20,
4.809,-0.95,-1.64,-1.59,-0.44,0.31,0.20,
4.809,-0.95,-1.64,-1.59,-0.43,0.27,0.20,
4.81,-1.24,-1.90,-1.72,-0.43,0.27,0.20,
4.81,-1.24,-1.90,-1.72,-0.42,0.23,0.21,
4.811,-1.24,-1.90,-1.72,-0.41,0.16,0.23,
4.811,-1.68,-2.12,-1.87,-0.41,0.16,0.23,
4.812,-1.68,-2.12,-1.87,-0.38,0.08,0.27,
4.812,-2.26,-2.43,-1.98,-0.38,0.08,0.27,
4.813,-3.07,-2.77,-2.12,-0.38,0.08,0.27,
4.813,-3.07,-2.77,-2.12,-0.33,-0.05,0.35,
4.814,-3.07,-2.77,-2.12,-0.23,-0.24,0.47,
4.814,-3.76,-2.98,-2.54,-0.23,-0.24,0.47,
4.815,-4.17,-3.01,-3.16,-0.23,-0.24,0.47,
4.815,-4.17,-3.01,-3.16,-0.13,-0.50,0.64,
4.816,-4.04,-2.71,-3.97,-0.13,-0.50,0.64,
4.816,-4.04,-2.71,-3.97,-0.02,-0.82,0.82,
4.817,-4.04,-2.71,-3.97,0.08,-1.19,0.99,
4.817,-3.12,-2.26,-4.88,0.08,-1.19,0.99,
4.817,-3.12,-2.26,-4.88,0.15,-1.54,1.12,
4.818,-1.54,-1.82,-5.94,0.15,-1.54,1.12,
4.818,0.43,-1.42,-7.17,0.15,-1.54,1.12,
4.819,0.43,-1.42,-7.17,0.17,-1.82,1.18,
4.819,2.46,-0.69,-8.34,0.17,-1.82,1.18,
4.82,2.46,-0.69,-8.34,0.16,-2.04,1.16,
4.82,2.46,-0.69,-8.34,0.08,-2.15,1.05,
4.82,4.24,-0.32,-9.63,0.08,-2.15,1.05,
4.821,4.24,-0.32,-9.63,-0.09,-2.15,0.84,
4.821,5.31,-0.31,-11.59,-0.09,-2.15,0.84,
4.822,5.00,-0.68,-13.96,-0.09,-2.15,0.84,
4.822,5.00,-0.68,-13.96,-0.35,-2.04,0.56,
4.822,5.00,-0.68,-13.96,-0.73,-1.80,0.28,
4.823,3.71,-1.26,-16.46,-0.73,-1.80,0.28,
4.823,1.86,-1.77,-18.76,-0.73,-1.80,0.28,
4.823,1.86,-1.77,-18.76,-1.26,-1.43,0.07,
4.824,1.86,-1.77,-18.76,-1.93,-0.98,-0.06,
4.824,-0.33,-2.28,-20.62,-1.93,-0.98,-0.06,
4.825,-2.55,-2.92,-21.86,-1.93,-0.98,-0.06,
4.825,-2.55,-2.92,-21.86,-2.70,-0.47,-0.09,
4.826,-4.44,-3.79,-22.64,-2.70,-0.47,-0.09,
4.826,-4.44,-3.79,-22.64,-3.53,0.08,-0.01,
4.826,-4.44,-3.79,-22.64,-4.39,0.63,0.16,
4.827,-5.99,-4.98,-22.80,-4.39,0.63,0.16,
4.827,-5.99,-4.98,-22.80,-5.24,1.19,0.40,
4.828,-6.84,-6.24,-22.40,-5.24,1.19,0.40,
4.828,-6.84,-6.24,-22.40,-6.05,1.75,0.68,
4.829,-7.00,-7.26,-21.69,-6.05,1.75,0.68,
4.829,-6.71,-8.02,-20.73,-6.05,1.75,0.68,
4.829,-6.71,-8.02,-20.73,-6.79,2.30,0.94,
4.83,-6.06,-8.73,-19.51,-6.79,2.30,0.94,
4.83,-6.06,-8.73,-19.51,-7.45,2.82,1.16,
4.831,-5.10,-9.44,-18.10,-7.45,2.82,1.16,
4.831,-5.10,-9.44,-18.10,-8.01,3.27,1.33,
4.831,-4.03,-9.99,-16.72,-8.01,3.27,1.33,
4.832,-4.03,-9.99,-16.72,-8.45,3.63,1.44,
4.832,-4.03,-9.99,-16.72,-8.77,3.89,1.49,
4.833,-2.94,-10.22,-15.27,-8.77,3.89,1.49,
4.833,-1.93,-10.08,-14.11,-8.77,3.89,1.49,
4.833,-1.93,-10.08,-14.11,-8.97,4.08,1.49,
4.834,-1.01,-9.73,-13.21,-8.97,4.08,1.49,
4.834,-1.01,-9.73,-13.21,-9.06,4.20,1.44,
4.835,0.06,-9.27,-12.81,-9.06,4.20,1.44,
4.835,0.06,-9.27,-12.81,-9.05,4.25,1.36,
4.835,1.10,-8.89,-12.85,-9.05,4.25,1.36,
4.836,1.10,-8.89,-12.85,-8.99,4.22,1.25,
4.836,1.65,-8.89,-13.31,-8.99,4.22,1.25,
4.836,1.65,-8.89,-13.31,-8.89,4.16,1.11,
4.837,1.83,-9.02,-14.28,-8.89,4.16,1.11,
4.837,1.83,-9.02,-14.28,-8.77,4.09,0.97,
4.837,2.06,-8.95,-15.46,-8.77,4.09,0.97,
4.838,2.06,-8.95,-15.46,-8.69,4.01,0.85,
4.838,2.06,-8.95,-15.46,-8.65,3.95,0.76,
4.838,2.34,-8.78,-16.53,-8.65,3.95,0.76,
4.962,2.68,-8.77,-17.72,-8.65,3.95,0.76,
4.963,2.68,-8.77,-17.72,-8.65,3.93,0.69,
4.963,2.89,-9.00,-18.85,-8.65,3.93,0.69,
4.964,2.89,-9.00,-18.85,-8.71,3.94,0.63,
4.964,3.01,-9.32,-19.91,-8.71,3.94,0.63,
4.964,3.01,-9.32,-19.91,-8.85,3.95,0.58,
4.965,3.41,-9.65,-20.50,-8.85,3.95,0.58,
4.965,3.41,-9.65,-20.50,-9.06,3.99,0.54,
4.965,4.28,-9.99,-20.57,-9.06,3.99,0.54,
4.966,4.28,-9.99,-20.57,-9.32,4.04,0.52,
4.966,4.28,-9.99,-20.57,-9.62,4.11,0.48,
4.967,5.31,-10.37,-20.18,-9.62,4.11,0.48,
4.995,5.31,-10.37,-20.18,-9.91,4.19,0.43,
4.995,6.25,-10.79,-19.52,-9.91,4.19,0.43,
4.995,6.25,-10.79,-19.52,-10.19,4.28,0.35,
4.996,7.23,-11.22,-18.55,-10.19,4.28,0.35,
4.996,7.23,-11.22,-18.55,-10.46,4.36,0.26,
4.997,8.42,-11.58,-17.46,-10.46,4.36,0.26,
4.997,8.42,-11.58,-17.46,-10.69,4.44,0.14,
4.998,9.66,-11.90,-16.22,-10.69,4.44,0.14,
4.998,9.66,-11.90,-16.22,-10.88,4.56,-0.03,
4.999,10.70,-12.32,-14.85,-10.88,4.56,-0.03,
4.999,11.52,-12.61,-13.46,-10.88,4.56,-0.03,
5.0,11.52,-12.61,-13.46,-11.03,4.69,-0.23,
5.0,12.16,-12.82,-12.03,-11.03,4.69,-0.23,
5.001,12.16,-12.82,-12.03,-11.13,4.83,-0.46,
5.001,12.16,-12.82,-12.03,-11.18,4.97,-0.71,
5.002,12.52,-13.15,-10.59,-11.18,4.97,-0.71,
5.002,12.52,-13.15,-10.59,-11.15,5.09,-0.97,
5.003,12.75,-13.45,-8.98,-11.15,5.09,-0.97,
5.003,12.75,-13.45,-8.98,-11.05,5.19,-1.23,
5.003,13.04,-13.51,-7.37,-11.05,5.19,-1.23,
5.004,13.04,-13.51,-7.37,-10.86,5.22,-1.48,
5.004,13.67,-13.08,-5.65,-10.86,5.22,-1.48,
5.005,14.59,-12.62,-3.86,-10.86,5.22,-1.48,
5.005,14.59,-12.62,-3.86,-10.58,5.22,-1.73,
5.006,15.66,-12.38,-2.29,-10.58,5.22,-1.73,
5.006,15.66,-12.38,-2.29,-10.18,5.18,-2.01,
5.007,16.68,-12.08,-0.91,-10.18,5.18,-2.01,
5.007,16.68,-12.08,-0.91,-9.67,5.06,-2.33,
5.007,17.50,-11.65,0.27,-9.67,5.06,-2.33,
5.008,17.50,-11.65,0.27,-9.05,4.83,-2.70,
5.008,17.50,-11.65,0.27,-8.34,4.50,-3.10,
5.009,18.02,-11.45,1.12,-8.34,4.50,-3.10,
5.009,18.12,-11.55,1.67,-8.34,4.50,-3.10,
5.01,18.12,-11.55,1.67,-7.55,4.06,-3.51,
5.01,18.12,-11.55,1.67,-6.70,3.48,-3.90,
5.01,18.07,-11.79,1.65,-6.70,3.48,-3.90,
5.011,17.85,-11.74,0.85,-6.70,3.48,-3.90,
5.012,17.85,-11.74,0.85,-5.83,2.74,-4.27,
5.012,17.26,-11.86,-0.55,-5.83,2.74,-4.27,
5.013,17.26,-11.86,-0.55,-5.00,1.91,-4.61,
5.013,16.61,-12.53,-2.43,-5.00,1.91,-4.61,
5.013,16.61,-12.53,-2.43,-4.26,1.10,-4.90,
5.014,16.16,-13.57,-4.35,-4.26,1.10,-4.90,
5.014,16.16,-13.57,-4.35,-3.65,0.34,-5.14,
5.015,16.16,-13.57,-4.35,-3.22,-0.33,-5.35,
5.015,15.68,-14.57,-5.99,-3.22,-0.33,-5.35,
5.016,14.82,-15.41,-7.32,-3.22,-0.33,-5.35,
5.016,14.82,-15.41,-7.32,-2.92,-0.89,-5.54,
5.017,14.82,-15.41,-7.32,-2.76,-1.33,-5.68,
5.018,13.40,-16.20,-8.48,-2.76,-1.33,-5.68,
5.019,11.73,-17.00,-9.53,-2.76,-1.33,-5.68,
5.019,11.73,-17.00,-9.53,-2.73,-1.64,-5.76,
5.02,10.30,-17.82,-10.24,-2.73,-1.64,-5.76,
5.02,10.30,-17.82,-10.24,-2.81,-1.87,-5.76,
5.021,10.30,-17.82,-10.24,-3.00,-2.02,-5.69,
5.021,9.35,-18.44,-10.58,-3.00,-2.02,-5.69,
5.022,8.46,-19.06,-10.58,-3.00,-2.02,-5.69,
5.024,8.46,-19.06,-10.58,-3.28,-2.05,-5.57,
5.025,8.46,-19.06,-10.58,-3.62,-1.97,-5.42,
5.025,7.76,-19.62,-10.24,-3.62,-1.97,-5.42,
5.026,7.29,-20.13,-9.58,-3.62,-1.97,-5.42,
5.026,7.29,-20.13,-9.58,-4.01,-1.78,-5.23,
5.027,6.89,-20.58,-8.65,-4.01,-1.78,-5.23,
5.027,6.89,-20.58,-8.65,-4.41,-1.48,-5.04,
5.027,6.40,-21.09,-7.71,-4.41,-1.48,-5.04,
5.028,6.40,-21.09,-7.71,-4.81,-1.13,-4.86,
5.099,6.40,-21.09,-7.71,-5.20,-0.73,-4.67,
5.1,5.96,-21.48,-6.74,-5.20,-0.73,-4.67,
5.1,5.72,-21.85,-5.61,-5.20,-0.73,-4.67,
5.1,5.72,-21.85,-5.61,-5.57,-0.28,-4.48,
5.101,5.11,-22.03,-4.45,-5.57,-0.28,-4.48,
5.101,5.11,-22.03,-4.45,-5.90,0.20,-4.30,
5.102,5.11,-22.03,-4.45,-6.18,0.65,-4.14,
5.102,4.33,-21.98,-3.13,-6.18,0.65,-4.14,
5.102,3.84,-21.78,-1.53,-6.18,0.65,-4.14,
5.103,3.84,-21.78,-1.53,-6.41,1.09,-3.97,
5.103,3.84,-21.78,-1.53,-6.55,1.52,-3.81,
5.103,3.46,-21.44,0.18,-6.55,1.52,-3.81,
5.104,3.46,-21.44,0.18,-6.59,1.94,-3.66,
5.104,2.94,-21.00,1.85,-6.59,1.94,-3.66,
5.105,2.94,-21.00,1.85,-6.52,2.33,-3.54,
5.105,2.32,-20.52,3.17,-6.52,2.33,-3.54,
5.105,1.65,-19.99,4.05,-6.52,2.33,-3.54,
5.106,1.65,-19.99,4.05,-6.34,2.64,-3.42,
5.106,1.11,-19.33,4.38,-6.34,2.64,-3.42,
5.106,1.11,-19.33,4.38,-6.09,2.84,-3.31,
5.107,0.77,-18.57,4.32,-6.09,2.84,-3.31,
5.107,0.77,-18.57,4.32,-5.79,2.96,-3.20,
5.107,0.71,-18.07,3.95,-5.79,2.96,-3.20,
5.108,0.71,-18.07,3.95,-5.47,3.02,-3.10,
5.108,0.71,-18.07,3.95,-5.16,3.03,-3.02,
5.108,1.05,-18.02,3.54,-5.16,3.03,-3.02,
5.109,1.05,-18.02,3.54,-4.86,3.02,-2.97,
5.109,1.40,-18.28,3.33,-4.86,3.02,-2.97,
5.11,1.40,-18.28,3.33,-4.56,3.00,-2.95,
5.11,1.38,-18.43,3.36,-4.56,3.00,-2.95,
5.11,1.08,-18.34,3.50,-4.56,3.00,-2.95,
5.111,1.08,-18.34,3.50,-4.26,2.98,-2.95,
5.111,0.67,-18.26,3.63,-4.26,2.98,-2.95,
5.111,0.67,-18.26,3.63,-3.95,2.93,-2.94,
5.142,0.49,-18.18,3.57,-3.95,2.93,-2.94,
5.143,0.49,-18.18,3.57,-3.64,2.85,-2.91,
5.143,0.49,-18.18,3.57,-3.36,2.75,-2.88,
5.144,0.48,-18.17,3.54,-3.36,2.75,-2.88,
5.144,0.47,-18.22,3.63,-3.36,2.75,-2.88,
5.145,0.47,-18.22,3.63,-3.08,2.67,-2.87,
5.145,0.14,-18.26,3.80,-3.08,2.67,-2.87,
5.145,0.14,-18.26,3.80,-2.81,2.62,-2.89,
5.146,0.14,-18.26,3.80,-2.55,2.59,-2.92,
5.146,-0.48,-18.26,3.91,-2.55,2.59,-2.92,
5.147,-1.04,-18.23,3.99,-2.55,2.59,-2.92,
5.147,-1.04,-18.23,3.99,-2.29,2.60,-2.94,
5.147,-1.74,-18.09,4.20,-2.29,2.60,-2.94,
5.148,-1.74,-18.09,4.20,-2.03,2.62,-2.94,
5.148,-2.70,-18.01,4.27,-2.03,2.62,-2.94,
5.149,-2.70,-18.01,4.27,-1.76,2.66,-2.94,
5.172,-2.70,-18.01,4.27,-1.47,2.67,-2.92,
5.172,-4.12,-17.84,4.21,-1.47,2.67,-2.92,
5.173,-4.12,-17.84,4.21,-1.17,2.63,-2.85,
5.173,-5.44,-17.55,3.94,-1.17,2.63,-2.85,
5.174,-5.44,-17.55,3.94,-0.88,2.55,-2.72,
5.174,-6.26,-17.25,3.34,-0.88,2.55,-2.72,
5.174,-6.26,-17.25,3.34,-0.61,2.44,-2.56,
5.175,-6.52,-16.93,2.66,-0.61,2.44,-2.56,
5.175,-7.17,-15.60,2.85,-0.61,2.44,-2.56,
5.176,-7.17,-15.60,2.85,-0.37,2.35,-2.39,
5.18,-7.06,-14.92,2.41,-0.37,2.35,-2.39,
5.18,-7.06,-14.92,2.41,-0.13,2.30,-2.22,
5.184,-7.06,-14.92,2.41,0.09,2.26,-2.04,
5.184,-6.38,-14.88,1.21,0.09,2.26,-2.04,
5.196,-6.38,-14.88,1.21,0.25,2.22,-1.90,
5.196,-5.88,-14.81,-0.22,0.25,2.22,-1.90,
5.197,-5.88,-14.81,-0.22,0.33,2.22,-1.81,
5.198,-5.54,-14.34,-1.59,0.33,2.22,-1.81,
5.198,-5.28,-13.52,-2.76,0.33,2.22,-1.81,
5.202,-5.28,-13.52,-2.76,0.33,2.25,-1.74,
5.234,-5.28,-13.52,-2.76,0.27,2.31,-1.68,
5.234,-5.06,-12.82,-3.74,0.27,2.31,-1.68,
5.235,-5.06,-12.82,-3.74,0.17,2.34,-1.63,
5.235,-4.92,-12.30,-4.55,0.17,2.34,-1.63,
5.236,-4.92,-12.30,-4.55,0.05,2.33,-1.62,
5.237,-4.85,-12.00,-5.04,0.05,2.33,-1.62,
5.238,-4.85,-12.00,-5.04,-0.09,2.29,-1.61,
5.238,-5.07,-11.85,-5.16,-0.09,2.29,-1.61,
5.239,-5.07,-11.85,-5.16,-0.22,2.22,-1.61,
5.239,-5.73,-11.59,-4.89,-0.22,2.22,-1.61,
5.239,-5.73,-11.59,-4.89,-0.32,2.15,-1.58,
5.24,-6.60,-11.27,-4.35,-0.32,2.15,-1.58,
5.24,-7.15,-10.88,-3.62,-0.32,2.15,-1.58,
5.241,-7.15,-10.88,-3.62,-0.39,2.05,-1.52,
5.241,-7.29,-10.63,-2.91,-0.39,2.05,-1.52,
5.242,-7.29,-10.63,-2.91,-0.43,1.95,-1.42,
5.242,-7.29,-10.63,-2.91,-0.44,1.86,-1.31,
5.242,-7.29,-10.32,-2.27,-0.44,1.86,-1.31,
5.252,-7.29,-10.32,-2.27,-0.41,1.78,-1.21,
5.252,-7.32,-10.05,-1.71,-0.41,1.78,-1.21,
5.253,-7.32,-10.05,-1.71,-0.36,1.69,-1.12,
5.253,-7.37,-9.72,-1.18,-0.36,1.69,-1.12,
5.257,-7.37,-9.72,-1.18,-0.29,1.60,-1.02,
5.257,-7.14,-9.43,-0.78,-0.29,1.60,-1.02,
5.3,-7.14,-9.43,-0.78,-0.22,1.52,-0.93,
5.3,-6.49,-9.15,-0.59,-0.22,1.52,-0.93,
5.301,-6.49,-9.15,-0.59,-0.14,1.45,-0.85,
5.301,-5.83,-8.74,-0.68,-0.14,1.45,-0.85,
5.301,-5.83,-8.74,-0.68,-0.07,1.40,-0.82,
5.302,-5.49,-8.30,-0.93,-0.07,1.40,-0.82,
5.302,-5.49,-8.30,-0.93,-0.02,1.35,-0.81,
5.303,-5.30,-7.86,-1.19,-0.02,1.35,-0.81,
5.303,-5.30,-7.86,-1.19,0.00,1.30,-0.81,
5.304,-5.04,-7.46,-1.42,0.00,1.30,-0.81,
5.304,-4.74,-7.15,-1.57,0.00,1.30,-0.81,
5.305,-4.74,-7.15,-1.57,0.00,1.26,-0.81,
5.305,-4.74,-7.15,-1.57,-0.00,1.22,-0.83,
5.305,-4.75,-6.97,-1.58,-0.00,1.22,-0.83,
5.306,-4.75,-6.97,-1.58,-0.01,1.17,-0.84,
5.306,-5.04,-6.87,-1.31,-0.01,1.17,-0.84,
5.307,-5.51,-6.85,-0.92,-0.01,1.17,-0.84,
5.307,-5.51,-6.85,-0.92,-0.01,1.12,-0.84,
5.308,-6.17,-6.92,-0.30,-0.01,1.12,-0.84,
5.308,-6.17,-6.92,-0.30,0.01,1.05,-0.81,
5.31,-6.17,-6.92,-0.30,0.06,0.98,-0.74,
5.311,-6.72,-7.08,0.43,0.06,0.98,-0.74,
5.324,-6.72,-7.08,0.43,0.15,0.89,-0.62,
5.324,-7.09,-7.21,1.11,0.15,0.89,-0.62,
5.325,-7.09,-7.21,1.11,0.28,0.80,-0.47,
5.325,-7.31,-7.25,1.55,0.28,0.80,-0.47,
5.325,-7.31,-7.25,1.55,0.43,0.72,-0.29,
5.326,-7.35,-7.17,1.71,0.43,0.72,-0.29,
5.333,-7.08,-7.03,1.46,0.43,0.72,-0.29,
5.333,-7.08,-7.03,1.46,0.59,0.66,-0.11,
5.336,-6.65,-6.90,0.91,0.59,0.66,-0.11,
5.337,-6.65,-6.90,0.91,0.72,0.66,0.08,
5.351,-6.65,-6.90,0.91,0.81,0.72,0.27,
5.352,-6.14,-6.67,0.26,0.81,0.72,0.27,
5.353,-5.59,-6.44,-0.35,0.81,0.72,0.27,
5.354,-5.59,-6.44,-0.35,0.85,0.83,0.44,
5.354,-5.59,-6.44,-0.35,0.86,0.99,0.59,
5.355,-4.94,-6.25,-0.91,0.86,0.99,0.59,
5.355,-4.94,-6.25,-0.91,0.85,1.15,0.75,
5.356,-4.14,-5.97,-1.38,0.85,1.15,0.75,
5.402,-4.14,-5.97,-1.38,0.82,1.29,0.88,
5.403,-3.08,-5.63,-1.74,0.82,1.29,0.88,
5.403,-1.77,-5.16,-1.82,0.82,1.29,0.88,
5.403,-1.77,-5.16,-1.82,0.79,1.38,0.99,
5.404,-1.77,-5.16,-1.82,0.78,1.41,1.04,
5.404,-0.58,-4.64,-1.77,0.78,1.41,1.04,
5.404,0.54,-4.05,-1.66,0.78,1.41,1.04,
5.404,0.54,-4.05,-1.66,0.79,1.38,1.04,
5.405,0.54,-4.05,-1.66,0.83,1.30,1.00,
5.405,1.59,-3.43,-1.63,0.83,1.30,1.00,
5.405,1.59,-3.43,-1.63,0.88,1.18,0.91,
5.405,2.37,-2.77,-1.78,0.88,1.18,0.91,
5.406,2.37,-2.77,-1.78,0.95,1.03,0.79,
5.406,2.65,-2.29,-1.93,0.95,1.03,0.79,
5.406,2.65,-2.29,-1.93,1.02,0.89,0.64,
5.406,2.64,-1.93,-2.02,1.02,0.89,0.64,
5.407,2.56,-1.80,-2.09,1.02,0.89,0.64,
5.407,2.56,-1.80,-2.09,1.09,0.73,0.49,
5.407,2.56,-1.80,-2.09,1.17,0.57,0.36,
5.407,2.30,-1.67,-2.22,1.17,0.57,0.36,
5.408,1.82,-1.66,-2.50,1.17,0.57,0.36,
5.408,1.82,-1.66,-2.50,1.24,0.42,0.25,
5.453,1.27,-1.62,-2.91,1.24,0.42,0.25,
5.454,1.27,-1.62,-2.91,1.31,0.27,0.16,
5.454,0.64,-1.63,-3.35,1.31,0.27,0.16,
5.454,0.64,-1.63,-3.35,1.34,0.16,0.11,
5.455,0.64,-1.63,-3.35,1.34,0.09,0.10,
5.455,0.11,-1.50,-3.74,1.34,0.09,0.10,
5.455,0.11,-1.50,-3.74,1.31,0.07,0.12,
5.456,-0.28,-1.35,-4.16,1.31,0.07,0.12,
5.456,-0.28,-1.35,-4.16,1.24,0.10,0.17,
5.456,-0.44,-1.22,-4.52,1.24,0.10,0.17,
5.457,-0.44,-1.22,-4.52,1.13,0.17,0.23,
5.457,-0.50,-1.16,-4.86,1.13,0.17,0.23,
5.457,-0.48,-1.07,-5.13,1.13,0.17,0.23,
5.458,-0.48,-1.07,-5.13,1.00,0.29,0.31,
5.458,-0.50,-1.02,-5.28,1.00,0.29,0.31,
5.458,-0.50,-1.02,-5.28,0.84,0.44,0.38,
5.459,-0.61,-0.87,-5.27,0.84,0.44,0.38,
5.459,-0.61,-0.87,-5.27,0.66,0.60,0.44,
5.459,-0.61,-0.87,-5.27,0.48,0.76,0.50,
5.46,-0.87,-0.78,-5.11,0.48,0.76,0.50,
5.46,-0.96,-0.64,-4.80,0.48,0.76,0.50,
5.461,-0.96,-0.64,-4.80,0.31,0.90,0.57,
5.477,-0.90,-0.66,-4.37,0.31,0.90,0.57,
5.478,-0.90,-0.66,-4.37,0.15,1.01,0.64,
5.478,-0.72,-0.72,-3.92,0.15,1.01,0.64,
5.478,-0.72,-0.72,-3.92,0.01,1.08,0.70,
5.479,-0.52,-0.69,-3.52,0.01,1.08,0.70,
5.479,-0.52,-0.69,-3.52,-0.11,1.14,0.75,
5.504,-0.19,-0.66,-3.03,-0.11,1.14,0.75,
5.504,0.22,-0.52,-2.29,-0.11,1.14,0.75,
5.505,0.22,-0.52,-2.29,-0.20,1.16,0.79,
5.505,0.22,-0.52,-2.29,-0.26,1.15,0.80,
5.506,0.22,-0.52,-2.29,-0.29,1.11,0.80,
5.506,0.69,-0.44,-1.48,-0.29,1.11,0.80,
5.506,0.69,-0.44,-1.48,-0.28,1.03,0.77,
5.507,1.04,-0.43,-0.66,-0.28,1.03,0.77,
5.507,1.19,-0.40,0.05,-0.28,1.03,0.77,
5.507,1.19,-0.40,0.05,-0.22,0.94,0.72,
5.508,1.19,-0.40,0.05,-0.11,0.85,0.67,
5.508,1.15,-0.43,0.63,-0.11,0.85,0.67,
5.591,1.04,-0.43,1.08,-0.11,0.85,0.67,
5.591,1.04,-0.43,1.08,0.02,0.75,0.62,
5.592,1.01,-0.40,1.32,0.02,0.75,0.62,
5.592,1.01,-0.40,1.32,0.18,0.64,0.58,
5.592,1.01,-0.40,1.32,0.35,0.53,0.54,
5.593,1.02,-0.35,1.26,0.35,0.53,0.54,
5.593,1.02,-0.35,1.26,0.52,0.43,0.51,
5.593,1.04,-0.23,0.94,0.52,0.43,0.51,
5.594,1.06,-0.11,0.27,0.52,0.43,0.51,
5.594,1.06,-0.11,0.27,0.67,0.35,0.47,
5.594,1.05,-0.01,-0.55,0.67,0.35,0.47,
5.594,1.05,-0.01,-0.55,0.76,0.31,0.44,
5.595,1.05,-0.01,-0.55,0.81,0.30,0.41,
5.595,0.85,-0.01,-1.32,0.81,0.30,0.41,
5.595,0.71,-0.10,-1.99,0.81,0.30,0.41,
5.596,0.71,-0.10,-1.99,0.80,0.33,0.40,
5.596,0.60,-0.06,-2.51,0.80,0.33,0.40,
5.596,0.60,-0.06,-2.51,0.75,0.40,0.40,
5.597,0.60,-0.06,-2.51,0.66,0.49,0.42,
5.597,0.47,0.05,-2.88,0.66,0.49,0.42,
5.597,0.47,0.05,-2.88,0.55,0.60,0.45,
5.597,0.41,0.22,-3.16,0.55,0.60,0.45,
5.598,0.59,0.38,-3.29,0.55,0.60,0.45,
5.598,0.59,0.38,-3.29,0.42,0.69,0.48,
5.598,0.59,0.38,-3.29,0.28,0.77,0.50,
5.599,0.93,0.47,-3.26,0.28,0.77,0.50,
5.599,1.16,0.56,-3.07,0.28,0.77,0.50,
5.599,1.16,0.56,-3.07,0.15,0.84,0.51,
5.599,1.16,0.73,-2.67,0.15,0.84,0.51,
5.6,1.16,0.73,-2.67,0.03,0.88,0.50,
5.6,0.94,0.92,-2.21,0.03,0.88,0.50,
5.6,0.94,0.92,-2.21,-0.05,0.89,0.48,
5.601,0.94,0.92,-2.21,-0.11,0.87,0.47,
5.601,0.61,1.01,-1.82,-0.11,0.87,0.47,
5.601,0.33,1.01,-1.63,-0.11,0.87,0.47,
5.602,0.33,1.01,-1.63,-0.14,0.84,0.49,
5.602,0.33,1.01,-1.63,-0.16,0.80,0.51,
5.603,-0.06,1.08,-1.65,-0.16,0.80,0.51,
5.631,-0.06,1.08,-1.65,-0.19,0.78,0.55,
5.632,-0.46,1.30,-1.81,-0.19,0.78,0.55,
5.632,-0.46,1.30,-1.81,-0.24,0.79,0.62,
5.632,-0.89,1.55,-2.12,-0.24,0.79,0.62,
5.633,-1.17,1.79,-2.58,-0.24,0.79,0.62,
5.633,-1.17,1.79,-2.58,-0.32,0.82,0.71,
5.633,-1.17,1.79,-2.58,-0.44,0.88,0.81,
5.634,-1.39,1.91,-3.03,-0.44,0.88,0.81,
5.634,-1.39,1.91,-3.03,-0.60,0.96,0.92,
5.634,-1.55,1.99,-3.35,-0.60,0.96,0.92,
5.635,-1.55,1.99,-3.35,-0.80,1.06,1.04,
5.635,-1.55,2.03,-3.24,-0.80,1.06,1.04,
5.635,-1.55,2.03,-3.24,-1.00,1.16,1.15,
5.636,-1.16,1.99,-2.58,-1.00,1.16,1.15,
5.636,-1.16,1.99,-2.58,-1.19,1.22,1.25,
5.636,-0.55,1.89,-1.53,-1.19,1.22,1.25,
5.644,-0.55,1.89,-1.53,-1.32,1.22,1.33,
5.645,0.06,1.81,-0.24,-1.32,1.22,1.33,
5.654,0.06,1.81,-0.24,-1.38,1.17,1.40,
5.655,0.63,1.75,1.10,-1.38,1.17,1.40,
5.655,1.18,1.70,2.37,-1.38,1.17,1.40,
5.656,1.18,1.70,2.37,-1.37,1.08,1.46,
5.656,1.77,1.70,3.50,-1.37,1.08,1.46,
5.656,1.77,1.70,3.50,-1.30,0.96,1.51,
5.661,2.29,1.84,4.49,-1.30,0.96,1.51,
5.661,2.29,1.84,4.49,-1.18,0.84,1.55,
5.666,2.87,2.11,5.21,-1.18,0.84,1.55,
5.666,2.87,2.11,5.21,-1.02,0.72,1.59,
5.671,3.57,2.41,5.63,-1.02,0.72,1.59,
5.671,3.57,2.41,5.63,-0.83,0.62,1.62,
5.682,3.57,2.41,5.63,-0.64,0.55,1.64,
5.682,4.37,2.67,5.74,-0.64,0.55,1.64,
5.683,5.25,2.93,5.56,-0.64,0.55,1.64,
5.683,5.25,2.93,5.56,-0.45,0.53,1.66,
5.686,5.25,2.93,5.56,-0.29,0.56,1.65,
5.686,6.07,3.28,5.10,-0.29,0.56,1.65,
5.694,6.84,3.66,4.44,-0.29,0.56,1.65,
5.694,6.84,3.66,4.44,-0.16,0.62,1.63,
5.696,7.45,3.96,3.67,-0.16,0.62,1.63,
5.697,7.45,3.96,3.67,-0.08,0.72,1.57,
5.7,7.45,3.96,3.67,-0.06,0.82,1.50,
5.7,8.08,4.04,2.82,-0.06,0.82,1.50,
5.72,8.59,4.01,1.99,-0.06,0.82,1.50,
5.721,8.59,4.01,1.99,-0.09,0.94,1.42,
5.721,8.79,3.95,1.42,-0.09,0.94,1.42,
5.722,8.79,3.95,1.42,-0.17,1.07,1.33,
5.722,8.64,3.81,1.09,-0.17,1.07,1.33,
5.723,8.64,3.81,1.09,-0.28,1.21,1.24,
5.723,8.64,3.81,1.09,-0.42,1.34,1.16,
5.724,8.43,3.52,1.08,-0.42,1.34,1.16,
5.724,8.37,3.32,1.47,-0.42,1.34,1.16,
5.724,8.37,3.32,1.47,-0.57,1.44,1.10,
5.729,8.37,3.32,1.47,-0.72,1.49,1.05,
5.73,8.41,3.16,2.04,-0.72,1.49,1.05,
5.734,8.50,3.04,2.79,-0.72,1.49,1.05,
5.734,8.50,3.04,2.79,-0.85,1.52,1.00,
5.74,8.85,2.91,3.70,-0.85,1.52,1.00,
5.74,8.85,2.91,3.70,-0.95,1.54,0.94,
5.744,8.85,2.91,3.70,-1.02,1.54,0.89,
5.745,9.37,2.65,4.91,-1.02,1.54,0.89,
5.786,9.37,2.65,4.91,-1.03,1.51,0.81,
5.787,9.72,2.45,6.43,-1.03,1.51,0.81,
5.787,10.02,2.52,7.79,-1.03,1.51,0.81,
5.787,10.02,2.52,7.79,-0.98,1.49,0.74,
5.788,10.35,2.83,8.77,-0.98,1.49,0.74,
5.788,10.35,2.83,8.77,-0.86,1.46,0.65,
5.789,10.49,3.20,9.38,-0.86,1.46,0.65,
5.789,10.49,3.20,9.38,-0.71,1.45,0.56,
5.789,10.74,3.32,9.60,-0.71,1.45,0.56,
5.79,10.74,3.32,9.60,-0.54,1.48,0.46,
5.79,10.74,3.32,9.60,-0.38,1.53,0.37,
5.79,11.15,3.22,9.52,-0.38,1.53,0.37,
5.791,11.67,3.15,9.13,-0.38,1.53,0.37,
5.791,11.67,3.15,9.13,-0.25,1.61,0.28,
5.791,11.67,3.15,9.13,-0.15,1.71,0.17,
5.792,12.25,3.20,8.72,-0.15,1.71,0.17,
5.792,12.86,3.17,8.35,-0.15,1.71,0.17,
5.793,12.86,3.17,8.35,-0.08,1.82,0.03,
5.793,12.86,3.17,8.35,-0.04,1.91,-0.13,
5.793,13.35,2.99,8.15,-0.04,1.91,-0.13,
5.804,13.56,2.66,8.10,-0.04,1.91,-0.13,
5.804,13.56,2.66,8.10,-0.02,1.99,-0.30,
5.805,13.44,2.38,8.26,-0.02,1.99,-0.30,
5.805,13.44,2.38,8.26,-0.01,2.07,-0.47,
5.831,13.44,2.38,8.26,0.00,2.17,-0.63,
5.832,13.44,2.38,8.26,0.03,2.27,-0.77,
5.832,13.09,2.13,8.61,0.03,2.27,-0.77,
5.833,13.17,1.64,9.21,0.03,2.27,-0.77,
5.833,13.17,1.64,9.21,0.09,2.35,-0.90,
5.834,13.43,1.05,10.17,0.09,2.35,-0.90,
5.834,13.48,0.45,11.31,0.09,2.35,-0.90,
5.835,13.48,0.45,11.31,0.22,2.41,-1.04,
5.835,13.27,-0.02,12.33,0.22,2.41,-1.04,
5.836,13.27,-0.02,12.33,0.41,2.46,-1.17,
5.836,13.27,-0.02,12.33,0.67,2.51,-1.29,
5.836,12.78,-0.19,13.03,0.67,2.51,-1.29,
5.837,12.78,-0.19,13.03,0.97,2.58,-1.39,
5.838,12.14,-0.26,13.08,0.97,2.58,-1.39,
5.848,12.14,-0.26,13.08,1.27,2.69,-1.47,
5.849,11.82,-0.48,12.35,1.27,2.69,-1.47,
5.969,11.82,-0.48,12.35,1.55,2.81,-1.53,
5.969,11.83,-0.96,11.03,1.55,2.81,-1.53,
5.97,11.83,-0.96,11.03,1.78,2.96,-1.58,
5.97,11.81,-1.54,9.27,1.78,2.96,-1.58,
5.971,11.76,-1.97,7.32,1.78,2.96,-1.58,
5.971,11.76,-1.97,7.32,1.94,3.15,-1.61,
5.972,11.76,-1.97,7.32,2.04,3.37,-1.63,
5.972,11.91,-2.39,5.44,2.04,3.37,-1.63,
5.973,11.91,-2.39,5.44,2.06,3.60,-1.64,
5.973,12.13,-2.82,3.46,2.06,3.60,-1.64,
5.973,12.13,-2.82,3.46,2.02,3.80,-1.66,
5.974,12.09,-3.15,1.63,2.02,3.80,-1.66,
5.974,11.72,-3.29,-0.03,2.02,3.80,-1.66,
5.975,11.72,-3.29,-0.03,1.92,4.01,-1.68,
5.975,11.44,-3.50,-1.21,1.92,4.01,-1.68,
5.976,11.44,-3.50,-1.21,1.76,4.21,-1.68,
5.976,11.73,-3.86,-1.74,1.76,4.21,-1.68,
5.977,11.73,-3.86,-1.74,1.59,4.39,-1.66,
5.977,12.33,-4.21,-1.70,1.59,4.39,-1.66,
5.978,12.33,-4.21,-1.70,1.42,4.51,-1.64,
5.978,12.33,-4.21,-1.70,1.30,4.56,-1.65,
5.978,12.88,-4.50,-1.47,1.30,4.56,-1.65,
5.979,13.21,-4.73,-1.32,1.30,4.56,-1.65,
5.979,13.21,-4.73,-1.32,1.23,4.55,-1.70,
5.98,13.11,-4.99,-1.06,1.23,4.55,-1.70,
5.98,13.11,-4.99,-1.06,1.19,4.47,-1.76,
5.981,13.11,-4.99,-1.06,1.17,4.39,-1.84,
5.981,12.75,-5.32,-0.71,1.17,4.39,-1.84,
5.981,12.39,-5.52,-0.34,1.17,4.39,-1.84,
5.982,12.39,-5.52,-0.34,1.17,4.33,-1.90,
5.982,11.89,-5.65,-0.15,1.17,4.33,-1.90,
5.982,11.89,-5.65,-0.15,1.19,4.31,-1.95,
5.983,11.26,-5.82,-0.05,1.19,4.31,-1.95,
5.983,11.26,-5.82,-0.05,1.22,4.34,-2.00,
5.983,11.26,-5.82,-0.05,1.25,4.41,-2.02,
5.984,10.77,-6.02,-0.13,1.25,4.41,-2.02,
5.984,10.77,-6.02,-0.13,1.28,4.55,-2.02,
5.984,10.41,-6.20,-0.43,1.28,4.55,-2.02,
5.985,10.41,-6.20,-0.43,1.30,4.74,-2.00,
5.985,10.17,-6.27,-0.87,1.30,4.74,-2.00,
5.986,9.83,-6.29,-1.73,1.30,4.74,-2.00,
5.986,9.83,-6.29,-1.73,1.29,5.02,-1.97,
5.986,9.83,-6.29,-1.73,1.26,5.37,-1.93,
5.987,9.59,-6.34,-2.59,1.26,5.37,-1.93,
5.987,9.59,-6.34,-2.59,1.20,5.77,-1.86,
5.987,9.59,-6.38,-3.27,1.20,5.77,-1.86,
5.987,9.80,-6.47,-3.84,1.20,5.77,-1.86,
5.988,9.80,-6.47,-3.84,1.13,6.19,-1.80,
5.988,10.06,-6.68,-4.42,1.13,6.19,-1.80,
5.988,10.06,-6.68,-4.42,1.05,6.61,-1.76,
5.989,10.06,-6.68,-4.42,0.98,6.98,-1.74,
5.989,10.37,-6.91,-4.94,0.98,6.98,-1.74,
5.99,10.37,-6.91,-4.94,0.92,7.30,-1.75,
5.99,10.73,-7.07,-5.08,0.92,7.30,-1.75,
5.99,11.04,-7.03,-4.94,0.92,7.30,-1.75,
5.991,11.04,-7.03,-4.94,0.91,7.55,-1.80,
5.991,11.00,-7.17,-4.66,0.91,7.55,-1.80,
5.991,11.00,-7.17,-4.66,0.96,7.71,-1.87,
5.992,10.56,-7.42,-4.44,0.96,7.71,-1.87,
5.992,10.56,-7.42,-4.44,1.10,7.77,-1.94,
5.992,10.56,-7.42,-4.44,1.31,7.72,-2.00,
5.993,9.66,-7.60,-4.40,1.31,7.72,-2.00,
6.116,9.66,-7.60,-4.40,1.62,7.54,-2.02,
6.117,8.54,-7.70,-4.86,1.62,7.54,-2.02,
6.117,7.45,-7.54,-5.92,1.62,7.54,-2.02,
6.117,7.45,-7.54,-5.92,1.98,7.18,-2.00,
6.118,7.45,-7.54,-5.92,2.34,6.63,-1.94,
6.118,6.29,-7.20,-7.54,2.34,6.63,-1.94,
6.118,5.32,-6.89,-9.66,2.34,6.63,-1.94,
6.119,5.32,-6.89,-9.66,2.66,5.94,-1.86,
6.119,4.63,-6.52,-12.04,2.66,5.94,-1.86,
6.12,4.63,-6.52,-12.04,2.89,5.21,-1.76,
6.12,4.18,-6.10,-14.46,2.89,5.21,-1.76,
6.12,4.18,-6.10,-14.46,2.98,4.51,-1.65,
6.121,3.92,-5.75,-16.30,2.98,4.51,-1.65,
6.121,3.92,-5.75,-16.30,2.91,3.95,-1.56,
6.121,3.73,-5.48,-17.50,2.91,3.95,-1.56,
6.122,3.73,-5.48,-17.50,2.70,3.60,-1.49,
6.122,3.73,-5.48,-17.50,2.39,3.47,-1.44,
6.123,2.95,-5.39,-18.20,2.39,3.47,-1.44,
6.123,2.95,-5.39,-18.20,2.03,3.47,-1.40,
6.123,2.97,-5.24,-18.48,2.03,3.47,-1.40,
6.124,2.97,-5.24,-18.48,1.64,3.54,-1.38,
6.124,2.54,-5.17,-18.41,1.64,3.54,-1.38,
6.125,2.54,-5.17,-18.41,1.25,3.63,-1.39,
6.125,1.07,-5.12,-17.90,1.25,3.63,-1.39,
6.125,1.07,-5.12,-17.90,0.91,3.70,-1.38,
6.126,-0.62,-4.97,-17.35,0.91,3.70,-1.38,
6.126,-0.62,-4.97,-17.35,0.61,3.74,-1.32,
6.126,-2.29,-4.67,-16.61,0.61,3.74,-1.32,
6.127,-3.75,-4.42,-15.70,0.61,3.74,-1.32,
6.127,-3.75,-4.42,-15.70,0.37,3.71,-1.21,
6.128,-4.59,-4.24,-14.87,0.37,3.71,-1.21,
6.128,-4.59,-4.24,-14.87,0.21,3.61,-1.06,
6.128,-4.75,-3.89,-14.35,0.21,3.61,-1.06,
6.129,-4.75,-3.89,-14.35,0.10,3.45,-0.88,
6.129,-4.38,-3.36,-14.18,0.10,3.45,-0.88,
6.13,-4.38,-3.36,-14.18,0.02,3.24,-0.70,
6.13,-4.38,-3.36,-14.18,-0.05,3.02,-0.54,
6.131,-3.81,-2.82,-14.14,-0.05,3.02,-0.54,
6.265,-3.81,-2.82,-14.14,-0.14,2.84,-0.42,
6.265,-3.05,-2.45,-14.22,-0.14,2.84,-0.42,
6.266,-2.23,-2.20,-14.13,-0.14,2.84,-0.42,
6.267,-2.23,-2.20,-14.13,-0.26,2.69,-0.32,
6.267,-2.23,-2.20,-14.13,-0.41,2.60,-0.24,
6.268,-1.50,-1.87,-13.83,-0.41,2.60,-0.24,
6.268,-1.50,-1.87,-13.83,-0.58,2.56,-0.20,
6.269,-1.01,-1.61,-13.54,-0.58,2.56,-0.20,
6.269,-1.01,-1.61,-13.54,-0.76,2.54,-0.17,
6.27,-1.01,-1.61,-13.54,-0.93,2.51,-0.15,
6.27,-1.01,-1.61,-13.54,-1.10,2.48,-0.13,
6.271,-0.67,-1.36,-13.14,-1.10,2.48,-0.13,
6.272,-0.52,-1.26,-12.55,-1.10,2.48,-0.13,
6.272,-0.43,-1.33,-11.74,-1.10,2.48,-0.13,
6.273,-0.43,-1.33,-11.74,-1.24,2.45,-0.12,
6.273,-0.26,-1.49,-10.85,-1.24,2.45,-0.12,
6.274,-0.26,-1.49,-10.85,-1.35,2.42,-0.11,
6.274,-0.02,-1.61,-9.85,-1.35,2.42,-0.11,
6.275,0.26,-1.71,-8.87,-1.35,2.42,-0.11,
6.275,0.26,-1.71,-8.87,-1.42,2.37,-0.11,
6.276,0.26,-1.71,-8.87,-1.46,2.31,-0.12,
6.276,0.55,-1.94,-7.94,-1.46,2.31,-0.12,
6.277,0.55,-1.94,-7.94,-1.45,2.22,-0.15,
6.277,0.74,-2.17,-7.04,-1.45,2.22,-0.15,
6.277,0.74,-2.17,-7.04,-1.41,2.10,-0.19,
6.278,0.76,-2.27,-6.19,-1.41,2.10,-0.19,
6.278,0.55,-2.40,-5.57,-1.41,2.10,-0.19,
6.279,0.55,-2.40,-5.57,-1.34,1.96,-0.23,
6.279,0.21,-2.60,-5.06,-1.34,1.96,-0.23,
6.28,0.21,-2.60,-5.06,-1.25,1.81,-0.26,
6.28,-0.22,-2.66,-4.45,-1.25,1.81,-0.26,
6.281,-0.22,-2.66,-4.45,-1.16,1.66,-0.27,
6.281,-0.22,-2.66,-4.45,-1.07,1.50,-0.27,
6.282,-0.61,-2.63,-3.62,-1.07,1.50,-0.27,
6.282,-0.61,-2.63,-3.62,-0.95,1.33,-0.26,
6.283,-0.87,-2.58,-2.79,-0.95,1.33,-0.26,
6.283,-0.87,-2.58,-2.79,-0.81,1.18,-0.23,
6.284,-0.90,-2.59,-2.01,-0.81,1.18,-0.23,
6.284,-0.71,-2.67,-1.45,-0.81,1.18,-0.23,
6.285,-0.71,-2.67,-1.45,-0.65,1.02,-0.19,
6.285,-0.71,-2.67,-1.45,-0.47,0.89,-0.16,
6.286,-0.36,-2.59,-1.08,-0.47,0.89,-0.16,
6.286,0.08,-2.48,-0.85,-0.47,0.89,-0.16,
6.287,0.08,-2.48,-0.85,-0.28,0.76,-0.15,
6.287,0.41,-2.22,-0.78,-0.28,0.76,-0.15,
6.287,0.41,-2.22,-0.78,-0.10,0.65,-0.15,
6.288,0.55,-1.89,-0.82,-0.10,0.65,-0.15,
6.288,0.55,-1.89,-0.82,0.09,0.55,-0.17,
6.289,0.59,-1.59,-0.90,0.09,0.55,-0.17,
6.289,0.59,-1.59,-0.90,0.27,0.45,-0.20,
6.29,0.48,-1.35,-1.12,0.27,0.45,-0.20,
6.29,0.48,-1.35,-1.12,0.43,0.37,-0.24,
6.29,0.48,-1.35,-1.12,0.59,0.28,-0.28,
6.291,0.16,-1.28,-1.47,0.59,0.28,-0.28,
6.291,-0.30,-1.24,-1.86,0.59,0.28,-0.28,
6.292,-0.30,-1.24,-1.86,0.72,0.19,-0.30,
6.292,-0.79,-1.11,-2.29,0.72,0.19,-0.30,
6.292,-0.79,-1.11,-2.29,0.84,0.08,-0.30,
6.293,-0.79,-1.11,-2.29,0.94,-0.05,-0.26,
6.293,-1.05,-0.97,-2.78,0.94,-0.05,-0.26,
6.294,-1.05,-0.97,-2.78,1.01,-0.17,-0.20,
6.294,-0.97,-0.82,-3.25,1.01,-0.17,-0.20,
6.295,-0.73,-0.54,-3.75,1.01,-0.17,-0.20,
6.295,-0.73,-0.54,-3.75,1.06,-0.29,-0.13,
6.296,-0.73,-0.54,-3.75,1.08,-0.38,-0.06,
6.296,-0.24,-0.29,-4.17,1.08,-0.38,-0.06,
6.297,-0.24,-0.29,-4.17,1.06,-0.43,-0.01,
6.297,0.44,-0.02,-4.46,1.06,-0.43,-0.01,
6.298,1.16,0.14,-4.64,1.06,-0.43,-0.01,
6.298,1.16,0.14,-4.64,1.01,-0.43,0.02,
6.299,1.16,0.14,-4.64,0.94,-0.38,0.01,
6.299,1.74,0.36,-4.62,0.94,-0.38,0.01,
6.3,1.74,0.36,-4.62,0.85,-0.29,-0.03,
6.3,2.08,0.53,-4.43,0.85,-0.29,-0.03,
6.3,2.08,0.53,-4.43,0.77,-0.18,-0.08,
6.301,2.20,0.65,-4.16,0.77,-0.18,-0.08,
6.301,2.20,0.65,-4.16,0.70,-0.07,-0.14,
6.301,2.25,0.72,-3.75,0.70,-0.07,-0.14,
6.302,2.25,0.72,-3.75,0.64,0.04,-0.20,
6.302,2.20,0.74,-3.16,0.64,0.04,-0.20,
6.302,2.20,0.74,-3.16,0.62,0.13,-0.26,
6.302,2.07,0.66,-2.75,0.62,0.13,-0.26,
6.303,1.75,0.54,-2.62,0.62,0.13,-0.26,
6.303,1.75,0.54,-2.62,0.63,0.22,-0.33,
6.303,1.75,0.54,-2.62,0.64,0.30,-0.38,
6.304,1.29,0.32,-2.66,0.64,0.30,-0.38,
6.304,1.29,0.32,-2.66,0.66,0.38,-0.41,
6.304,0.92,0.19,-2.68,0.66,0.38,-0.41,
6.305,0.92,0.19,-2.68,0.67,0.44,-0.44,
6.305,0.76,0.10,-2.60,0.67,0.44,-0.44,
6.427,0.76,0.10,-2.60,0.69,0.50,-0.46,
6.427,0.66,-0.00,-2.63,0.69,0.50,-0.46,
6.428,0.66,-0.00,-2.63,0.70,0.54,-0.48,
6.428,0.48,-0.12,-2.76,0.70,0.54,-0.48,
6.428,0.48,-0.12,-2.76,0.70,0.56,-0.50,
6.429,0.29,-0.15,-2.80,0.70,0.56,-0.50,
6.429,0.29,-0.15,-2.80,0.69,0.58,-0.52,
6.429,0.10,-0.18,-2.82,0.69,0.58,-0.52,
6.43,0.10,-0.18,-2.82,0.68,0.58,-0.53,
6.43,-0.20,-0.25,-2.81,0.68,0.58,-0.53,
6.458,-0.20,-0.25,-2.81,0.65,0.57,-0.54,
6.458,-0.46,-0.30,-2.69,0.65,0.57,-0.54,
6.459,-0.46,-0.30,-2.69,0.63,0.54,-0.53,
6.459,-0.64,-0.45,-2.29,0.63,0.54,-0.53,
6.459,-0.64,-0.45,-2.29,0.62,0.51,-0.51,
6.46,-0.77,-0.57,-1.80,0.62,0.51,-0.51,
6.46,-0.77,-0.57,-1.80,0.64,0.46,-0.50,
6.461,-0.87,-0.63,-1.66,0.64,0.46,-0.50,
6.461,-1.15,-0.72,-1.85,0.64,0.46,-0.50,
6.461,-1.15,-0.72,-1.85,0.66,0.40,-0.49,
6.462,-1.15,-0.72,-1.85,0.68,0.33,-0.47,
6.462,-1.58,-0.77,-1.99,0.68,0.33,-0.47,
6.463,-1.58,-0.77,-1.99,0.69,0.24,-0.45,
6.463,-1.91,-0.74,-2.03,0.69,0.24,-0.45,
6.463,-1.91,-0.74,-2.03,0.70,0.13,-0.42,
6.464,-2.12,-0.68,-1.91,0.70,0.13,-0.42,
6.464,-2.16,-0.64,-1.89,0.70,0.13,-0.42,
6.464,-2.16,-0.64,-1.89,0.72,-0.01,-0.37,
6.465,-2.16,-0.64,-1.89,0.74,-0.15,-0.33,
6.465,-2.13,-0.65,-1.78,0.74,-0.15,-0.33,
6.466,-2.10,-0.61,-1.71,0.74,-0.15,-0.33,
6.466,-2.10,-0.61,-1.71,0.75,-0.28,-0.30,
6.466,-2.10,-0.61,-1.71,0.75,-0.40,-0.27,
6.467,-2.09,-0.48,-1.64,0.75,-0.40,-0.27,
6.467,-1.99,-0.39,-1.51,0.75,-0.40,-0.27,
6.467,-1.99,-0.39,-1.51,0.76,-0.50,-0.24,
6.468,-1.99,-0.39,-1.51,0.75,-0.60,-0.21,
6.468,-1.84,-0.28,-1.35,0.75,-0.60,-0.21,
6.469,-1.84,-0.28,-1.35,0.75,-0.67,-0.18,
6.469,-1.65,-0.19,-1.15,0.75,-0.67,-0.18,
6.469,-1.39,-0.05,-0.88,0.75,-0.67,-0.18,
6.47,-1.39,-0.05,-0.88,0.74,-0.74,-0.15,
6.47,-1.39,-0.05,-0.88,0.73,-0.80,-0.13,
6.471,-1.16,0.07,-0.73,0.73,-0.80,-0.13,
6.471,-1.16,0.07,-0.73,0.72,-0.86,-0.11,
6.472,-0.89,0.22,-0.57,0.72,-0.86,-0.11,
6.472,-0.64,0.41,-0.41,0.72,-0.86,-0.11,
6.472,-0.64,0.41,-0.41,0.70,-0.90,-0.10,
6.473,-0.64,0.41,-0.41,0.68,-0.93,-0.10,
6.473,-0.39,0.56,-0.43,0.68,-0.93,-0.10,
6.474,-0.24,0.60,-0.68,0.68,-0.93,-0.10,
6.474,-0.24,0.60,-0.68,0.63,-0.93,-0.11,
6.474,-0.24,0.60,-0.68,0.56,-0.89,-0.13,
6.475,-0.10,0.65,-0.89,0.56,-0.89,-0.13,
6.475,0.01,0.66,-0.99,0.56,-0.89,-0.13,
6.476,0.01,0.66,-0.99,0.45,-0.81,-0.14,
6.476,0.15,0.69,-0.87,0.45,-0.81,-0.14,
6.476,0.15,0.69,-0.87,0.33,-0.71,-0.16,
6.477,0.10,0.70,-0.70,0.33,-0.71,-0.16,
6.477,0.10,0.70,-0.70,0.20,-0.58,-0.18,
6.477,-0.07,0.63,-0.51,0.20,-0.58,-0.18,
6.478,-0.07,0.63,-0.51,0.07,-0.45,-0.21,
6.478,-0.47,0.59,-0.26,0.07,-0.45,-0.21,
6.479,-0.47,0.59,-0.26,-0.05,-0.33,-0.24,
6.479,-0.82,0.56,0.07,-0.05,-0.33,-0.24,
6.479,-0.82,0.56,0.07,-0.17,-0.24,-0.27,
6.48,-1.06,0.53,0.43,-0.17,-0.24,-0.27,
6.48,-1.06,0.53,0.43,-0.27,-0.18,-0.27,
6.481,-1.22,0.50,0.83,-0.27,-0.18,-0.27,
6.481,-1.22,0.50,0.83,-0.35,-0.14,-0.27,
6.482,-1.29,0.36,1.25,-0.35,-0.14,-0.27,
6.482,-1.29,0.36,1.25,-0.42,-0.12,-0.27,
6.735,-1.28,0.30,1.58,-0.42,-0.12,-0.27,
6.735,-1.28,0.30,1.58,-0.46,-0.10,-0.26,
6.736,-1.19,0.22,1.80,-0.46,-0.10,-0.26,
6.736,-1.19,0.22,1.80,-0.49,-0.11,-0.25,
6.736,-1.05,0.18,1.93,-0.49,-0.11,-0.25,
6.737,-1.05,0.18,1.93,-0.52,-0.11,-0.23,
6.737,-0.90,0.16,2.05,-0.52,-0.11,-0.23,
6.738,-0.90,0.16,2.05,-0.54,-0.10,-0.23,
6.738,-0.58,0.13,2.10,-0.54,-0.10,-0.23,
6.739,-0.58,0.13,2.10,-0.55,-0.10,-0.22,
6.739,-0.58,0.13,2.10,-0.56,-0.10,-0.22,
6.739,-0.27,0.09,2.10,-0.56,-0.10,-0.22,
6.74,0.06,0.14,2.07,-0.56,-0.10,-0.22,
6.74,0.06,0.14,2.07,-0.57,-0.10,-0.23,
6.74,0.06,0.14,2.07,-0.57,-0.11,-0.26,
6.741,0.29,0.11,1.90,-0.57,-0.11,-0.26,
6.741,0.29,0.11,1.90,-0.59,-0.11,-0.30,
6.741,0.48,-0.04,1.72,-0.59,-0.11,-0.30,
6.742,0.48,-0.04,1.72,-0.61,-0.10,-0.34,
6.742,0.65,-0.27,1.61,-0.61,-0.10,-0.34,
6.743,0.65,-0.27,1.61,-0.65,-0.08,-0.39,
6.743,0.85,-0.51,1.60,-0.65,-0.08,-0.39,
6.743,0.98,-0.73,1.64,-0.65,-0.08,-0.39,
6.744,0.98,-0.73,1.64,-0.68,-0.04,-0.45,
6.744,0.99,-0.93,1.70,-0.68,-0.04,-0.45,
6.744,0.99,-0.93,1.70,-0.71,0.02,-0.52,
6.745,0.99,-0.93,1.70,-0.73,0.07,-0.59,
6.745,0.88,-1.17,1.79,-0.73,0.07,-0.59,
6.745,0.71,-1.38,1.86,-0.73,0.07,-0.59,
6.746,0.71,-1.38,1.86,-0.75,0.13,-0.66,
6.746,0.71,-1.38,1.86,-0.77,0.18,-0.73,
6.746,0.53,-1.66,1.99,-0.77,0.18,-0.73,
6.746,0.53,-1.66,1.99,-0.77,0.23,-0.80,
6.747,0.32,-1.98,2.18,-0.77,0.23,-0.80,
6.747,0.01,-2.22,2.37,-0.77,0.23,-0.80,
6.747,0.01,-2.22,2.37,-0.76,0.28,-0.86,
6.748,-0.42,-2.46,2.59,-0.76,0.28,-0.86,
6.748,-0.42,-2.46,2.59,-0.73,0.32,-0.90,
6.777,-0.98,-2.76,2.82,-0.73,0.32,-0.90,
6.777,-0.98,-2.76,2.82,-0.68,0.34,-0.94,
6.777,-0.98,-2.76,2.82,-0.61,0.34,-0.94,
6.778,-1.51,-3.08,3.17,-0.61,0.34,-0.94,
6.778,-1.51,-3.08,3.17,-0.52,0.31,-0.92,
6.778,-2.07,-3.47,3.47,-0.52,0.31,-0.92,
6.779,-2.07,-3.47,3.47,-0.39,0.24,-0.88,
6.779,-2.78,-3.75,3.73,-0.39,0.24,-0.88,
6.78,-3.45,-3.90,3.82,-0.39,0.24,-0.88,
6.78,-3.45,-3.90,3.82,-0.23,0.14,-0.81,
6.78,-3.45,-3.90,3.82,-0.07,0.00,-0.72,
6.78,-4.00,-4.01,3.87,-0.07,0.00,-0.72,
6.781,-4.24,-4.16,3.86,-0.07,0.00,-0.72,
6.781,-4.24,-4.16,3.86,0.10,-0.15,-0.62,
6.782,-4.35,-4.35,3.81,0.10,-0.15,-0.62,
6.782,-4.35,-4.35,3.81,0.28,-0.30,-0.52,
6.782,-4.24,-4.51,3.68,0.28,-0.30,-0.52,
6.783,-4.24,-4.51,3.68,0.45,-0.45,-0.42,
6.783,-4.24,-4.51,3.68,0.61,-0.57,-0.32,
6.783,-4.08,-4.70,3.50,0.61,-0.57,-0.32,
6.784,-4.08,-4.70,3.50,0.76,-0.66,-0.23,
6.784,-3.85,-4.78,3.31,0.76,-0.66,-0.23,
6.784,-3.85,-4.78,3.31,0.89,-0.74,-0.15,
6.785,-3.53,-4.87,3.10,0.89,-0.74,-0.15,
6.785,-3.18,-4.98,2.90,0.89,-0.74,-0.15,
6.785,-3.18,-4.98,2.90,1.01,-0.78,-0.07,
6.786,-3.18,-4.98,2.90,1.11,-0.79,-0.02,
6.786,-2.83,-5.14,2.72,1.11,-0.79,-0.02,
6.786,-2.61,-5.31,2.58,1.11,-0.79,-0.02,
6.787,-2.61,-5.31,2.58,1.20,-0.78,0.03,
6.787,-2.49,-5.53,2.38,1.20,-0.78,0.03,
6.787,-2.49,-5.53,2.38,1.28,-0.74,0.06,
6.788,-2.49,-5.53,2.38,1.34,-0.71,0.10,
6.788,-2.53,-5.69,2.21,1.34,-0.71,0.10,
6.788,-2.47,-5.82,2.04,1.34,-0.71,0.10,
6.789,-2.47,-5.82,2.04,1.41,-0.70,0.13,
6.789,-2.47,-5.82,2.04,1.47,-0.69,0.16,
6.789,-2.41,-5.97,1.91,1.47,-0.69,0.16,
6.79,-2.41,-5.97,1.91,1.54,-0.71,0.19,
6.79,-2.43,-6.10,1.80,1.54,-0.71,0.19,
6.79,-2.46,-6.22,1.59,1.54,-0.71,0.19,
6.791,-2.46,-6.22,1.59,1.59,-0.74,0.22,
6.791,-2.46,-6.22,1.59,1.64,-0.79,0.26,
6.791,-2.44,-6.31,1.47,1.64,-0.79,0.26,
6.792,-2.44,-6.31,1.47,1.68,-0.84,0.30,
6.792,-2.38,-6.41,1.38,1.68,-0.84,0.30,
6.792,-2.38,-6.41,1.38,1.71,-0.90,0.33,
6.793,-2.26,-6.52,1.32,1.71,-0.90,0.33,
6.793,-2.26,-6.52,1.32,1.73,-0.95,0.37,
6.793,-2.12,-6.64,1.23,1.73,-0.95,0.37,
6.794,-2.12,-6.64,1.23,1.74,-1.01,0.39,
6.794,-2.07,-6.89,1.08,1.74,-1.01,0.39,
6.794,-2.07,-6.89,1.08,1.73,-1.04,0.41,
6.794,-2.25,-7.25,0.94,1.73,-1.04,0.41,
6.795,-2.25,-7.25,0.94,1.71,-1.04,0.46,
6.795,-2.41,-7.57,0.87,1.71,-1.04,0.46,
6.795,-2.41,-7.57,0.87,1.68,-1.04,0.52,
6.796,-2.47,-7.73,0.81,1.68,-1.04,0.52,
6.796,-2.47,-7.73,0.81,1.64,-1.01,0.59,
6.796,-2.53,-7.84,0.76,1.64,-1.01,0.59,
6.797,-2.53,-7.84,0.76,1.59,-0.95,0.68,
6.797,-2.60,-8.04,0.77,1.59,-0.95,0.68,
6.797,-2.69,-8.33,0.74,1.59,-0.95,0.68,
6.798,-2.69,-8.33,0.74,1.53,-0.88,0.78,
6.798,-2.69,-8.33,0.74,1.46,-0.78,0.90,
6.798,-2.68,-8.51,0.64,1.46,-0.78,0.90,
6.799,-2.68,-8.51,0.64,1.37,-0.67,1.03,
6.799,-2.55,-8.51,0.47,1.37,-0.67,1.03,
6.799,-2.55,-8.51,0.47,1.26,-0.52,1.17,
6.8,-2.43,-8.45,0.27,1.26,-0.52,1.17,
6.8,-2.43,-8.45,0.27,1.12,-0.33,1.31,
6.8,-2.31,-8.39,0.08,1.12,-0.33,1.31,
6.8,-2.31,-8.39,0.08,0.95,-0.11,1.41,
6.801,-2.28,-8.19,0.07,0.95,-0.11,1.41,
6.801,-2.28,-8.19,0.07,0.76,0.13,1.47,
6.801,-2.31,-7.96,0.29,0.76,0.13,1.47,
6.802,-2.39,-7.78,0.61,0.76,0.13,1.47,
6.802,-2.39,-7.78,0.61,0.57,0.36,1.51,
6.802,-2.39,-7.78,0.61,0.39,0.55,1.52,
6.803,-2.54,-7.83,1.11,0.39,0.55,1.52,
6.803,-2.54,-7.83,1.11,0.24,0.72,1.54,
6.803,-2.81,-8.03,1.80,0.24,0.72,1.54,
6.803,-2.81,-8.03,1.80,0.13,0.86,1.56,
6.804,-3.08,-8.29,2.64,0.13,0.86,1.56,
6.804,-3.08,-8.29,2.64,0.07,0.98,1.59,
6.804,-3.32,-8.47,3.43,0.07,0.98,1.59,
6.805,-3.32,-8.47,3.43,0.06,1.08,1.64,
6.805,-3.46,-8.64,4.14,0.06,1.08,1.64,
6.805,-3.46,-8.64,4.14,0.10,1.15,1.69,
6.805,-3.42,-8.77,4.75,0.10,1.15,1.69,
6.806,-3.25,-8.94,5.24,0.10,1.15,1.69,
6.806,-3.25,-8.94,5.24,0.19,1.18,1.74,
6.806,-3.25,-8.94,5.24,0.32,1.18,1.79,
6.807,-2.94,-9.18,5.58,0.32,1.18,1.79,
6.807,-2.57,-9.51,5.75,0.32,1.18,1.79,
6.807,-2.57,-9.51,5.75,0.48,1.16,1.82,
6.916,-2.57,-9.51,5.75,0.66,1.12,1.84,
6.916,-2.25,-9.94,5.66,0.66,1.12,1.84,
6.917,-2.25,-9.94,5.66,0.85,1.08,1.86,
6.917,-1.89,-10.39,5.38,0.85,1.08,1.86,
7.1,-1.89,-10.39,5.38,1.03,1.03,1.87,
7.1,-1.52,-10.89,5.02,1.03,1.03,1.87,
7.101,-1.52,-10.89,5.02,1.20,0.99,1.87,
7.101,-1.31,-11.42,4.45,1.20,0.99,1.87,
7.102,-1.20,-11.90,3.84,1.20,0.99,1.87,
7.102,-1.20,-11.90,3.84,1.34,0.95,1.86,
7.102,-1.18,-12.30,3.20,1.34,0.95,1.86,
7.103,-1.18,-12.30,3.20,1.47,0.90,1.87,
7.103,-1.20,-12.69,2.49,1.47,0.90,1.87,
7.104,-1.20,-12.69,2.49,1.56,0.82,1.88,
7.104,-1.15,-13.04,1.83,1.56,0.82,1.88,
7.105,-1.15,-13.04,1.83,1.62,0.73,1.91,
7.105,-1.07,-13.32,1.33,1.62,0.73,1.91,
7.106,-1.07,-13.32,1.33,1.64,0.65,1.94,
7.106,-1.11,-13.59,0.99,1.64,0.65,1.94,
7.106,-1.11,-13.59,0.99,1.62,0.57,1.98,
7.107,-1.31,-13.70,0.80,1.62,0.57,1.98,
7.107,-1.31,-13.70,0.80,1.60,0.49,2.02,
7.108,-1.52,-13.82,0.65,1.60,0.49,2.02,
7.108,-1.52,-13.82,0.65,1.56,0.40,2.09,
7.109,-1.42,-14.07,0.52,1.56,0.40,2.09,
7.109,-1.42,-14.07,0.52,1.52,0.32,2.20,
7.11,-0.95,-14.37,0.39,1.52,0.32,2.20,
7.11,-0.95,-14.37,0.39,1.46,0.22,2.34,
7.11,-0.32,-14.64,0.31,1.46,0.22,2.34,
7.111,-0.32,-14.64,0.31,1.40,0.12,2.47,
7.111,0.30,-14.80,0.20,1.40,0.12,2.47,
7.112,0.30,-14.80,0.20,1.32,0.04,2.59,
7.112,0.80,-14.96,0.19,1.32,0.04,2.59,
7.113,0.80,-14.96,0.19,1.23,-0.02,2.69,
7.113,1.34,-15.05,0.25,1.23,-0.02,2.69,
7.114,1.34,-15.05,0.25,1.14,-0.06,2.79,
7.114,1.93,-15.11,0.37,1.14,-0.06,2.79,
7.115,1.93,-15.11,0.37,1.04,-0.08,2.89,
7.115,2.65,-15.12,0.67,1.04,-0.08,2.89,
7.116,2.65,-15.12,0.67,0.93,-0.08,2.99,
7.116,3.22,-15.13,0.95,0.93,-0.08,2.99,
7.116,3.22,-15.13,0.95,0.82,-0.03,3.06,
7.117,3.69,-15.27,1.26,0.82,-0.03,3.06,
7.117,3.69,-15.27,1.26,0.72,0.05,3.12,
7.118,3.69,-15.27,1.26,0.63,0.18,3.17,
7.118,3.97,-15.38,1.55,0.63,0.18,3.17,
7.119,4.16,-15.47,1.98,0.63,0.18,3.17,
7.119,4.16,-15.47,1.98,0.54,0.29,3.22,
7.119,4.16,-15.47,1.98,0.47,0.39,3.28,
7.12,4.44,-15.56,2.44,0.47,0.39,3.28,
7.12,4.44,-15.56,2.44,0.42,0.47,3.33,
7.121,4.84,-15.71,2.80,0.42,0.47,3.33,
7.121,4.84,-15.71,2.80,0.40,0.54,3.39,
7.121,5.69,-15.88,2.84,0.40,0.54,3.39,
7.121,5.69,-15.88,2.84,0.37,0.61,3.45,
7.122,5.96,-15.82,2.43,0.37,0.61,3.45,
7.122,6.31,-15.56,1.78,0.37,0.61,3.45,
7.122,6.31,-15.56,1.78,0.31,0.72,3.49,
7.123,6.31,-15.56,1.78,0.22,0.84,3.54,
7.123,6.94,-15.30,0.94,0.22,0.84,3.54,
7.123,7.60,-15.17,0.01,0.22,0.84,3.54,
7.124,7.60,-15.17,0.01,0.08,1.00,3.58,
7.124,8.22,-15.21,-0.89,0.08,1.00,3.58,
7.124,8.22,-15.21,-0.89,-0.12,1.17,3.60,
7.125,8.89,-15.24,-1.58,-0.12,1.17,3.60,
7.125,8.89,-15.24,-1.58,-0.37,1.37,3.61,
7.125,8.89,-15.24,-1.58,-0.65,1.59,3.59,
7.126,9.64,-15.13,-1.98,-0.65,1.59,3.59,
7.126,9.64,-15.13,-1.98,-0.96,1.84,3.53,
7.127,10.21,-15.03,-2.17,-0.96,1.84,3.53,
7.127,10.60,-14.96,-2.05,-0.96,1.84,3.53,
7.127,10.60,-14.96,-2.05,-1.26,2.13,3.43,
7.128,10.81,-15.00,-1.60,-1.26,2.13,3.43,
7.128,10.81,-15.00,-1.60,-1.55,2.42,3.29,
7.129,10.81,-15.00,-1.60,-1.80,2.69,3.14,
7.129,10.59,-15.20,-1.04,-1.80,2.69,3.14,
7.129,10.59,-15.20,-1.04,-2.00,2.92,3.01,
7.13,10.06,-15.58,-0.70,-2.00,2.92,3.01,
7.13,9.57,-15.91,-0.35,-2.00,2.92,3.01,
7.131,9.57,-15.91,-0.35,-2.17,3.09,2.93,
7.131,9.24,-16.26,0.10,-2.17,3.09,2.93,
7.131,9.24,-16.26,0.10,-2.30,3.20,2.87,
7.132,9.24,-16.26,0.10,-2.38,3.25,2.83,
7.132,8.92,-16.62,0.69,-2.38,3.25,2.83,
7.132,8.92,-16.62,0.69,-2.41,3.24,2.81,
7.133,8.52,-16.98,1.40,-2.41,3.24,2.81,
7.133,8.35,-17.26,2.08,-2.41,3.24,2.81,
7.133,8.35,-17.26,2.08,-2.38,3.17,2.81,
7.134,8.39,-17.50,2.68,-2.38,3.17,2.81,
7.134,8.39,-17.50,2.68,-2.30,3.03,2.82,
7.134,8.39,-17.50,2.68,-2.17,2.83,2.84,
7.135,8.55,-17.80,3.02,-2.17,2.83,2.84,
7.135,8.55,-17.80,3.02,-2.00,2.57,2.88,
7.135,8.63,-18.10,3.16,-2.00,2.57,2.88,
7.136,8.63,-18.10,3.16,-1.81,2.31,2.93,
7.136,8.84,-18.47,3.09,-1.81,2.31,2.93,
7.137,9.19,-18.75,2.93,-1.81,2.31,2.93,
7.137,9.19,-18.75,2.93,-1.62,2.04,2.98,
7.137,9.72,-18.95,2.74,-1.62,2.04,2.98,
7.138,9.72,-18.95,2.74,-1.43,1.77,3.03,
7.138,10.18,-19.00,2.61,-1.43,1.77,3.03,
7.138,10.18,-19.00,2.61,-1.23,1.51,3.09,
7.139,10.18,-19.00,2.61,-1.05,1.26,3.13,
7.139,10.41,-19.01,2.46,-1.05,1.26,3.13,
7.168,10.41,-19.01,2.46,-0.87,1.03,3.17,
7.168,10.48,-19.03,2.35,-0.87,1.03,3.17,
7.168,10.48,-19.03,2.35,-0.69,0.83,3.23,
7.169,10.35,-19.10,2.23,-0.69,0.83,3.23,
7.169,9.99,-19.17,1.97,-0.69,0.83,3.23,
7.169,9.99,-19.17,1.97,-0.54,0.67,3.32,
7.17,9.73,-19.17,1.62,-0.54,0.67,3.32,
7.17,9.73,-19.17,1.62,-0.40,0.53,3.44,
7.17,9.65,-19.07,1.28,-0.40,0.53,3.44,
7.171,9.65,-19.07,1.28,-0.29,0.42,3.61,
7.171,10.03,-18.92,1.05,-0.29,0.42,3.61,
7.171,10.03,-18.92,1.05,-0.20,0.34,3.80,
7.172,10.67,-18.73,0.90,-0.20,0.34,3.80,
7.172,10.67,-18.73,0.90,-0.12,0.27,3.99,
7.173,10.67,-18.73,0.90,-0.04,0.20,4.18,
7.173,11.44,-18.50,0.71,-0.04,0.20,4.18,
7.174,11.44,-18.50,0.71,0.04,0.14,4.36,
7.174,12.08,-18.22,0.57,0.04,0.14,4.36,
7.174,12.08,-18.22,0.57,0.13,0.07,4.53,
7.175,12.99,-17.93,0.40,0.13,0.07,4.53,
7.175,14.21,-17.48,0.23,0.13,0.07,4.53,
7.175,14.21,-17.48,0.23,0.23,0.03,4.69,
7.176,14.21,-17.48,0.23,0.34,0.01,4.83,
7.176,15.65,-17.01,-0.02,0.34,0.01,4.83,
7.176,17.12,-16.52,-0.31,0.34,0.01,4.83,
7.177,17.12,-16.52,-0.31,0.46,0.01,4.94,
7.177,18.53,-16.00,-0.61,0.46,0.01,4.94,
7.177,18.53,-16.00,-0.61,0.58,0.04,5.00,
7.178,18.53,-16.00,-0.61,0.70,0.08,5.03,
7.178,19.91,-15.47,-0.97,0.70,0.08,5.03,
7.178,19.91,-15.47,-0.97,0.81,0.13,5.03,
7.179,21.15,-14.97,-1.51,0.81,0.13,5.03,
7.179,22.23,-14.66,-2.33,0.81,0.13,5.03,
7.179,22.23,-14.66,-2.33,0.90,0.20,5.01,
7.18,22.23,-14.66,-2.33,0.94,0.29,4.97,
7.18,23.17,-14.41,-3.36,0.94,0.29,4.97,
7.181,23.72,-14.33,-4.57,0.94,0.29,4.97,
7.181,23.72,-14.33,-4.57,0.93,0.38,4.92,
7.181,23.83,-14.53,-5.64,0.93,0.38,4.92,
7.182,23.83,-14.53,-5.64,0.86,0.49,4.86,
7.182,23.59,-14.86,-6.43,0.86,0.49,4.86,
7.182,23.59,-14.86,-6.43,0.72,0.58,4.82,
7.183,23.14,-15.29,-6.84,0.72,0.58,4.82,
7.183,23.14,-15.29,-6.84,0.52,0.65,4.80,
7.184,22.91,-15.58,-6.82,0.52,0.65,4.80,
7.184,22.91,-15.58,-6.82,0.30,0.69,4.82,
7.184,22.91,-15.58,-6.82,0.06,0.69,4.86,
7.185,23.14,-15.79,-6.48,0.06,0.69,4.86,
7.185,23.51,-15.93,-5.79,0.06,0.69,4.86,
7.185,23.51,-15.93,-5.79,-0.18,0.64,4.90,
7.351,23.45,-15.91,-4.74,-0.18,0.64,4.90,
7.351,23.45,-15.91,-4.74,-0.40,0.55,4.92,
7.351,23.45,-15.91,-4.74,-0.58,0.47,4.94,
7.352,22.90,-15.81,-3.34,-0.58,0.47,4.94,
7.352,22.90,-15.81,-3.34,-0.68,0.41,5.00,
7.353,22.47,-15.57,-1.70,-0.68,0.41,5.00,
7.353,22.47,-15.57,-1.70,-0.71,0.35,5.12,
7.353,22.60,-15.04,-0.07,-0.71,0.35,5.12,
7.354,22.60,-15.04,-0.07,-0.65,0.27,5.27,
