
time,ax,ay,az,wx,wy,wz,
0.002,1.59,2.99,5.22,2.44,-1.58,-0.61,
0.003,1.49,2.54,4.96,2.44,-1.58,-0.61,
0.003,1.49,2.54,4.96,2.53,-1.78,-0.64,
0.003,1.46,2.13,4.59,2.53,-1.78,-0.64,
0.005,1.46,2.13,4.59,2.60,-1.99,-0.70,
0.005,1.42,1.82,4.37,2.60,-1.99,-0.70,
0.01,1.42,1.82,4.37,2.63,-2.18,-0.76,
0.011,1.32,1.56,4.34,2.63,-2.18,-0.76,
0.015,1.27,1.33,4.39,2.63,-2.18,-0.76,
0.015,1.27,1.33,4.39,2.65,-2.32,-0.83,
0.019,1.27,1.33,4.39,2.66,-2.42,-0.92,
0.02,1.28,0.94,4.50,2.66,-2.42,-0.92,
0.026,1.28,0.94,4.50,2.64,-2.47,-1.01,
0.026,1.26,0.51,4.61,2.64,-2.47,-1.01,
0.03,1.26,0.51,4.61,2.62,-2.45,-1.11,
0.03,1.17,-0.01,4.80,2.62,-2.45,-1.11,
0.034,1.17,-0.01,4.80,2.59,-2.39,-1.21,
0.035,0.96,-0.49,4.92,2.59,-2.39,-1.21,
0.039,0.96,-0.49,4.92,2.54,-2.29,-1.33,
0.039,0.57,-0.82,5.13,2.54,-2.29,-1.33,
0.045,0.57,-0.82,5.13,2.50,-2.17,-1.45,
0.046,0.04,-1.21,5.30,2.50,-2.17,-1.45,
0.049,-0.70,-1.64,5.52,2.50,-2.17,-1.45,
0.05,-0.70,-1.64,5.52,2.46,-2.04,-1.57,
0.054,-1.62,-2.26,5.59,2.46,-2.04,-1.57,
0.054,-1.62,-2.26,5.59,2.44,-1.89,-1.68,
0.067,-2.48,-3.03,5.49,2.44,-1.89,-1.68,
0.068,-2.48,-3.03,5.49,2.43,-1.76,-1.77,
0.068,-3.29,-3.73,5.26,2.43,-1.76,-1.77,
0.069,-3.29,-3.73,5.26,2.43,-1.64,-1.83,
0.071,-4.03,-4.40,5.08,2.43,-1.64,-1.83,
0.071,-4.03,-4.40,5.08,2.42,-1.55,-1.89,
0.073,-4.03,-4.40,5.08,2.42,-1.50,-1.94,
0.074,-4.76,-5.07,5.02,2.42,-1.50,-1.94,
0.096,-4.76,-5.07,5.02,2.42,-1.47,-1.97,
0.097,-5.85,-5.60,5.00,2.42,-1.47,-1.97,
0.098,-6.51,-6.10,5.07,2.42,-1.47,-1.97,
0.098,-6.51,-6.10,5.07,2.46,-1.48,-1.97,
0.098,-7.11,-6.57,5.08,2.46,-1.48,-1.97,
0.099,-7.11,-6.57,5.08,2.51,-1.51,-1.95,
0.099,-7.46,-6.98,4.95,2.51,-1.51,-1.95,
0.1,-7.46,-6.98,4.95,2.58,-1.55,-1.90,
0.1,-7.53,-7.50,4.78,2.58,-1.55,-1.90,
0.105,-7.53,-7.50,4.78,2.65,-1.59,-1.85,
0.106,-7.60,-8.02,4.57,2.65,-1.59,-1.85,
0.106,-7.60,-8.02,4.57,2.73,-1.64,-1.78,
0.116,-7.71,-8.54,4.35,2.73,-1.64,-1.78,
0.117,-7.71,-8.54,4.35,2.80,-1.68,-1.71,
0.118,-7.93,-9.00,4.09,2.80,-1.68,-1.71,
0.118,-7.93,-9.00,4.09,2.88,-1.71,-1.64,
0.118,-8.10,-9.35,3.88,2.88,-1.71,-1.64,
0.119,-8.10,-9.35,3.88,2.96,-1.72,-1.56,
0.122,-8.22,-9.58,3.73,2.96,-1.72,-1.56,
0.123,-8.22,-9.58,3.73,3.04,-1.73,-1.47,
0.127,-8.23,-9.68,3.62,3.04,-1.73,-1.47,
0.128,-8.23,-9.68,3.62,3.12,-1.74,-1.37,
0.131,-8.19,-9.82,3.35,3.12,-1.74,-1.37,
0.132,-8.19,-9.82,3.35,3.21,-1.75,-1.26,
0.136,-8.08,-10.06,3.01,3.21,-1.75,-1.26,
0.137,-8.08,-10.06,3.01,3.30,-1.75,-1.14,
0.151,-8.08,-10.06,3.01,3.38,-1.75,-1.02,
0.152,-7.93,-10.30,2.56,3.38,-1.75,-1.02,
0.153,-7.93,-10.30,2.56,3.46,-1.76,-0.90,
0.153,-7.90,-10.53,2.03,3.46,-1.76,-0.90,
0.154,-7.90,-10.53,2.03,3.53,-1.79,-0.76,
0.154,-7.94,-10.65,1.60,3.53,-1.79,-0.76,
0.156,-7.94,-10.65,1.60,3.58,-1.83,-0.61,
0.157,-7.66,-10.65,0.88,3.58,-1.83,-0.61,
0.161,-7.66,-10.65,0.88,3.60,-1.87,-0.48,
0.162,-7.40,-10.53,-0.06,3.60,-1.87,-0.48,
0.165,-7.22,-10.36,-0.88,3.60,-1.87,-0.48,
0.168,-7.22,-10.36,-0.88,3.56,-1.90,-0.36,
0.171,-7.22,-10.36,-0.88,3.47,-1.92,-0.24,
0.171,-6.94,-10.17,-1.59,3.47,-1.92,-0.24,
0.182,-6.94,-10.17,-1.59,3.34,-1.90,-0.13,
0.183,-6.65,-10.01,-2.16,3.34,-1.90,-0.13,
0.184,-6.65,-10.01,-2.16,3.17,-1.84,-0.02,
0.184,-6.24,-9.87,-2.69,3.17,-1.84,-0.02,
0.186,-6.24,-9.87,-2.69,2.95,-1.73,0.08,
0.187,-5.83,-9.73,-2.99,2.95,-1.73,0.08,
0.19,-5.83,-9.73,-2.99,2.70,-1.58,0.17,
0.191,-5.38,-9.64,-3.17,2.70,-1.58,0.17,
0.195,-4.83,-9.55,-3.16,2.70,-1.58,0.17,
0.196,-4.83,-9.55,-3.16,2.44,-1.42,0.25,
0.2,-4.83,-9.55,-3.16,2.17,-1.23,0.32,
0.201,-4.15,-9.52,-3.02,2.17,-1.23,0.32,
0.205,-3.46,-9.51,-2.63,2.17,-1.23,0.32,
0.205,-3.46,-9.51,-2.63,1.89,-1.03,0.38,
0.21,-2.92,-9.52,-2.09,1.89,-1.03,0.38,
0.211,-2.92,-9.52,-2.09,1.62,-0.82,0.43,
0.215,-2.62,-9.49,-1.42,1.62,-0.82,0.43,
0.215,-2.62,-9.49,-1.42,1.37,-0.59,0.46,
0.254,-2.42,-9.42,-0.58,1.37,-0.59,0.46,
0.254,-2.42,-9.42,-0.58,1.15,-0.37,0.48,
0.255,-2.42,-9.42,-0.58,0.98,-0.16,0.50,
0.255,-2.19,-9.36,0.17,0.98,-0.16,0.50,
0.256,-2.01,-9.37,0.88,0.98,-0.16,0.50,
0.256,-2.01,-9.37,0.88,0.85,0.03,0.51,
0.257,-1.79,-9.41,1.49,0.85,0.03,0.51,
0.258,-1.79,-9.41,1.49,0.76,0.22,0.52,
0.258,-1.52,-9.44,1.92,0.76,0.22,0.52,
0.26,-1.52,-9.44,1.92,0.70,0.40,0.54,
0.261,-1.52,-9.44,1.92,0.65,0.61,0.56,
0.261,-1.30,-9.43,2.14,0.65,0.61,0.56,
0.262,-1.30,-9.43,2.14,0.61,0.82,0.57,
0.262,-1.05,-9.24,2.24,0.61,0.82,0.57,
0.263,-1.05,-9.24,2.24,0.58,1.05,0.58,
0.263,-0.89,-9.04,2.15,0.58,1.05,0.58,
0.264,-0.89,-9.04,2.15,0.54,1.27,0.60,
0.264,-0.65,-8.71,2.02,0.54,1.27,0.60,
0.265,-0.11,-8.26,1.77,0.54,1.27,0.60,
0.265,-0.11,-8.26,1.77,0.50,1.47,0.62,
0.268,-0.11,-8.26,1.77,0.44,1.65,0.63,
0.269,0.71,-7.79,1.40,0.44,1.65,0.63,
0.273,0.71,-7.79,1.40,0.38,1.77,0.62,
0.274,1.94,-7.20,0.74,0.38,1.77,0.62,
0.278,1.94,-7.20,0.74,0.27,1.85,0.57,
0.278,3.22,-6.61,-0.08,0.27,1.85,0.57,
0.283,3.22,-6.61,-0.08,0.11,1.90,0.47,
0.283,4.26,-6.18,-0.78,0.11,1.90,0.47,
0.288,4.26,-6.18,-0.78,-0.11,1.96,0.33,
0.288,5.04,-5.85,-1.34,-0.11,1.96,0.33,
0.301,5.04,-5.85,-1.34,-0.36,2.05,0.16,
0.301,5.62,-5.49,-1.58,-0.36,2.05,0.16,
0.302,6.07,-5.08,-1.60,-0.36,2.05,0.16,
0.302,6.07,-5.08,-1.60,-0.63,2.17,-0.01,
0.303,6.07,-5.08,-1.60,-0.91,2.29,-0.17,
0.303,6.24,-4.73,-1.35,-0.91,2.29,-0.17,
0.307,6.24,-4.73,-1.35,-1.17,2.42,-0.31,
0.308,6.38,-4.51,-0.93,-1.17,2.42,-0.31,
0.313,6.38,-4.51,-0.93,-1.39,2.55,-0.41,
0.316,6.44,-4.34,-0.61,-1.39,2.55,-0.41,
0.317,6.44,-4.34,-0.61,-1.56,2.68,-0.50,
0.317,6.33,-4.18,-0.31,-1.56,2.68,-0.50,
0.322,6.33,-4.18,-0.31,-1.70,2.80,-0.58,
0.322,6.13,-3.97,-0.10,-1.70,2.80,-0.58,
0.34,6.13,-3.97,-0.10,-1.79,2.86,-0.65,
0.34,6.56,-3.88,-0.56,-1.79,2.86,-0.65,
0.341,6.56,-3.88,-0.56,-1.88,2.83,-0.72,
0.341,6.31,-3.63,-0.64,-1.88,2.83,-0.72,
0.342,5.47,-3.37,-0.27,-1.88,2.83,-0.72,
0.342,5.47,-3.37,-0.27,-1.96,2.77,-0.81,
0.342,4.64,-2.92,-0.15,-1.96,2.77,-0.81,
0.371,4.64,-2.92,-0.15,-2.00,2.72,-0.86,
0.372,4.64,-2.92,-0.15,-2.01,2.70,-0.89,
0.372,3.79,-2.50,-0.37,-2.01,2.70,-0.89,
0.372,3.01,-1.95,-0.91,-2.01,2.70,-0.89,
0.373,3.01,-1.95,-0.91,-1.98,2.71,-0.89,
0.373,2.60,-1.52,-1.34,-1.98,2.71,-0.89,
0.374,2.60,-1.52,-1.34,-1.95,2.70,-0.88,
0.374,2.44,-0.90,-1.59,-1.95,2.70,-0.88,
0.375,2.44,-0.90,-1.59,-1.96,2.52,-0.86,
0.375,2.19,-0.26,-1.90,-1.96,2.52,-0.86,
0.376,2.19,-0.26,-1.90,-1.94,2.30,-0.85,
0.376,2.19,-0.26,-1.90,-1.88,2.10,-0.89,
0.377,1.42,0.40,-1.97,-1.88,2.10,-0.89,
0.377,0.43,1.05,-1.88,-1.88,2.10,-0.89,
0.378,0.43,1.05,-1.88,-1.78,1.92,-0.98,
0.383,0.43,1.05,-1.88,-1.65,1.72,-1.05,
0.383,-0.48,1.75,-1.46,-1.65,1.72,-1.05,
0.385,-0.48,1.75,-1.46,-1.50,1.45,-1.09,
0.386,-0.27,2.18,-0.89,-1.50,1.45,-1.09,
0.39,-0.27,2.18,-0.89,-1.34,0.99,-1.10,
0.39,1.29,2.18,-0.44,-1.34,0.99,-1.10,
0.401,1.29,2.18,-0.44,-1.14,0.36,-1.12,
0.401,2.35,2.04,0.52,-1.14,0.36,-1.12,
0.402,2.35,2.04,0.52,-0.91,-0.28,-1.19,
0.402,2.56,2.24,1.42,-0.91,-0.28,-1.19,
0.405,2.56,2.24,1.42,-0.64,-0.82,-1.28,
0.405,2.47,2.84,1.99,-0.64,-0.82,-1.28,
0.41,2.47,2.84,1.99,-0.37,-1.25,-1.36,
0.411,2.42,3.54,2.66,-0.37,-1.25,-1.36,
0.419,2.37,4.14,3.23,-0.37,-1.25,-1.36,
0.42,2.37,4.14,3.23,-0.10,-1.58,-1.44,
0.42,2.37,4.14,3.23,0.15,-1.82,-1.51,
0.42,2.24,4.41,3.45,0.15,-1.82,-1.51,
0.425,1.90,4.34,3.13,0.15,-1.82,-1.51,
0.426,1.90,4.34,3.13,0.38,-1.96,-1.57,
0.433,1.90,4.34,3.13,0.56,-1.98,-1.62,
0.434,1.43,4.07,2.36,0.56,-1.98,-1.62,
0.435,1.43,4.07,2.36,0.66,-1.90,-1.65,
0.435,0.86,3.80,1.50,0.66,-1.90,-1.65,
0.439,0.17,3.52,0.56,0.66,-1.90,-1.65,
0.439,0.17,3.52,0.56,0.68,-1.73,-1.65,
0.446,0.17,3.52,0.56,0.61,-1.47,-1.62,
0.447,-0.60,3.20,-0.20,0.61,-1.47,-1.62,
0.449,-0.60,3.20,-0.20,0.48,-1.16,-1.56,
0.45,-1.52,2.81,-0.96,0.48,-1.16,-1.56,
0.453,-1.52,2.81,-0.96,0.32,-0.83,-1.46,
0.454,-2.63,2.41,-1.53,0.32,-0.83,-1.46,
0.459,-2.63,2.41,-1.53,0.12,-0.49,-1.31,
0.46,-3.74,2.07,-1.92,0.12,-0.49,-1.31,
0.463,-3.74,2.07,-1.92,-0.07,-0.15,-1.10,
0.464,-4.75,1.82,-2.11,-0.07,-0.15,-1.10,
0.468,-4.75,1.82,-2.11,-0.24,0.17,-0.85,
0.469,-5.67,1.68,-2.10,-0.24,0.17,-0.85,
0.473,-6.56,1.76,-2.22,-0.24,0.17,-0.85,
0.473,-6.56,1.76,-2.22,-0.38,0.43,-0.55,
0.478,-7.07,2.14,-2.49,-0.38,0.43,-0.55,
0.479,-7.07,2.14,-2.49,-0.47,0.64,-0.21,
0.483,-7.07,2.14,-2.49,-0.54,0.81,0.14,
0.483,-6.90,2.85,-2.62,-0.54,0.81,0.14,
0.488,-6.90,2.85,-2.62,-0.57,0.88,0.47,
0.488,-6.19,3.63,-2.42,-0.57,0.88,0.47,
0.5,-6.19,3.63,-2.42,-0.57,0.84,0.76,
0.501,-5.16,4.44,-1.74,-0.57,0.84,0.76,
0.501,-3.74,5.11,-0.80,-0.57,0.84,0.76,
0.502,-3.74,5.11,-0.80,-0.49,0.73,0.99,
0.502,-2.05,5.61,0.04,-0.49,0.73,0.99,
0.502,-2.05,5.61,0.04,-0.33,0.56,1.16,
0.507,-0.03,6.02,0.39,-0.33,0.56,1.16,
0.508,-0.03,6.02,0.39,-0.09,0.35,1.26,
0.512,2.25,6.52,-0.96,-0.09,0.35,1.26,
0.513,2.25,6.52,-0.96,0.22,0.20,1.28,
0.517,2.25,6.52,-0.96,0.51,0.26,1.21,
0.517,3.59,6.92,-3.84,0.51,0.26,1.21,
0.522,4.36,7.06,-6.40,0.51,0.26,1.21,
0.522,4.36,7.06,-6.40,0.69,0.43,1.10,
0.536,4.36,7.06,-6.40,0.70,0.55,0.97,
0.537,5.17,7.37,-8.31,0.70,0.55,0.97,
0.537,5.17,7.37,-8.31,0.61,0.58,0.80,
0.538,5.38,7.51,-9.71,0.61,0.58,0.80,
0.538,5.38,7.51,-9.71,0.48,0.55,0.58,
0.538,4.71,7.23,-10.31,0.48,0.55,0.58,
0.541,4.71,7.23,-10.31,0.32,0.42,0.37,
0.542,3.60,6.56,-9.90,0.32,0.42,0.37,
0.546,2.58,5.85,-8.65,0.32,0.42,0.37,
0.547,2.58,5.85,-8.65,0.19,0.16,0.20,
0.551,1.65,5.31,-7.05,0.19,0.16,0.20,
0.552,1.65,5.31,-7.05,0.13,-0.22,0.04,
0.556,0.70,4.82,-5.38,0.13,-0.22,0.04,
0.556,0.70,4.82,-5.38,0.15,-0.64,-0.09,
0.561,0.70,4.82,-5.38,0.25,-1.09,-0.19,
0.564,-0.14,4.14,-3.83,0.25,-1.09,-0.19,
0.566,-0.14,4.14,-3.83,0.41,-1.53,-0.26,
0.566,-0.66,3.29,-2.41,0.41,-1.53,-0.26,
0.571,-0.91,2.54,-1.17,0.41,-1.53,-0.26,
0.571,-0.91,2.54,-1.17,0.61,-1.94,-0.30,
0.576,-0.91,2.54,-1.17,0.83,-2.31,-0.34,
0.576,-1.23,2.03,-0.00,0.83,-2.31,-0.34,
0.58,-1.23,2.03,-0.00,1.05,-2.64,-0.35,
0.581,-1.33,1.98,0.69,1.05,-2.64,-0.35,
0.585,-1.16,1.60,0.26,1.05,-2.64,-0.35,
0.627,-1.16,1.60,0.26,1.24,-2.84,-0.35,
0.628,-1.16,1.60,0.26,1.34,-2.87,-0.34,
0.629,-1.06,0.90,-0.67,1.34,-2.87,-0.34,
0.629,-1.06,0.90,-0.67,1.31,-2.74,-0.32,
0.63,-0.93,0.40,-1.61,1.31,-2.74,-0.32,
0.631,-0.93,0.40,-1.61,1.15,-2.49,-0.32,
0.631,-0.94,0.31,-2.30,1.15,-2.49,-0.32,
0.632,-0.94,0.31,-2.30,0.89,-2.17,-0.33,
0.632,-1.18,0.34,-2.74,0.89,-2.17,-0.33,
0.633,-1.60,0.33,-2.84,0.89,-2.17,-0.33,
0.633,-1.60,0.33,-2.84,0.55,-1.80,-0.32,
0.634,-1.60,0.33,-2.84,0.17,-1.41,-0.30,
0.635,-1.96,0.14,-2.57,0.17,-1.41,-0.30,
0.635,-2.11,-0.21,-1.84,0.17,-1.41,-0.30,
0.636,-2.11,-0.21,-1.84,-0.23,-1.03,-0.27,
0.636,-2.11,-0.21,-1.84,-0.61,-0.66,-0.23,
0.637,-2.14,-0.54,-0.74,-0.61,-0.66,-0.23,
0.637,-2.13,-0.88,0.68,-0.61,-0.66,-0.23,
0.638,-2.13,-0.88,0.68,-0.94,-0.31,-0.20,
0.638,-2.13,-0.88,0.68,-1.19,0.01,-0.18,
0.639,-2.12,-1.06,2.13,-1.19,0.01,-0.18,
0.64,-2.12,-1.06,2.13,-1.35,0.26,-0.18,
0.64,-2.04,-1.27,3.49,-1.35,0.26,-0.18,
0.648,-2.04,-1.27,3.49,-1.42,0.45,-0.18,
0.648,-1.82,-1.37,4.78,-1.42,0.45,-0.18,
0.649,-1.82,-1.37,4.78,-1.41,0.57,-0.20,
0.649,-1.56,-1.44,5.83,-1.41,0.57,-0.20,
0.659,-1.56,-1.44,5.83,-1.31,0.62,-0.23,
0.66,-1.31,-1.55,6.74,-1.31,0.62,-0.23,
0.66,-1.31,-1.55,6.74,-1.15,0.61,-0.28,
0.661,-1.25,-1.67,7.52,-1.15,0.61,-0.28,
0.664,-1.25,-1.71,8.13,-1.15,0.61,-0.28,
0.664,-1.25,-1.71,8.13,-0.92,0.54,-0.32,
0.668,-1.25,-1.71,8.13,-0.63,0.43,-0.36,
0.669,-1.43,-1.75,8.51,-0.63,0.43,-0.36,
0.673,-1.72,-1.75,8.56,-0.63,0.43,-0.36,
0.673,-1.72,-1.75,8.56,-0.30,0.27,-0.39,
0.678,-1.72,-1.75,8.56,0.06,0.09,-0.40,
0.679,-2.01,-1.78,8.35,0.06,0.09,-0.40,
0.687,-2.01,-1.78,8.35,0.41,-0.10,-0.38,
0.688,-2.33,-1.84,7.82,0.41,-0.10,-0.38,
0.688,-2.43,-1.88,7.22,0.41,-0.10,-0.38,
0.69,-2.43,-1.88,7.22,0.75,-0.29,-0.33,
0.693,-2.33,-1.81,6.53,0.75,-0.29,-0.33,
0.694,-2.33,-1.81,6.53,1.06,-0.45,-0.27,
0.702,-2.14,-1.69,5.69,1.06,-0.45,-0.27,
0.703,-2.14,-1.69,5.69,1.33,-0.58,-0.20,
0.704,-2.14,-1.69,5.69,1.57,-0.65,-0.14,
0.704,-1.67,-1.46,4.19,1.57,-0.65,-0.14,
0.734,-1.19,-0.96,0.98,1.57,-0.65,-0.14,
0.734,-1.19,-0.96,0.98,1.74,-0.56,-0.09,
0.734,-1.19,-0.96,0.98,1.78,-0.21,-0.03,
0.735,-1.09,-0.68,-3.18,1.78,-0.21,-0.03,
0.735,-1.09,-0.68,-3.18,1.61,0.25,0.06,
0.735,-0.97,-0.52,-6.58,1.61,0.25,0.06,
0.736,-0.97,-0.52,-6.58,1.25,0.63,0.16,
0.736,-0.75,-0.11,-8.74,1.25,0.63,0.16,
0.736,-0.75,-0.11,-8.74,0.79,0.98,0.26,
0.737,-0.63,0.31,-9.84,0.79,0.98,0.26,
0.737,-0.63,0.31,-9.84,0.33,1.26,0.33,
0.737,-0.59,0.31,-9.98,0.33,1.26,0.33,
0.737,-0.59,0.31,-9.98,-0.10,1.41,0.39,
0.738,-0.53,0.09,-9.14,-0.10,1.41,0.39,
0.754,-0.53,0.09,-9.14,-0.46,1.38,0.44,
0.755,-0.42,0.01,-7.64,-0.46,1.38,0.44,
0.755,-0.42,0.01,-7.64,-0.71,1.24,0.46,
0.756,-0.37,0.12,-5.82,-0.71,1.24,0.46,
0.756,-0.37,0.12,-5.82,-0.84,1.04,0.46,
0.757,-0.35,0.18,-3.98,-0.84,1.04,0.46,
0.757,-0.35,0.18,-3.98,-0.84,0.79,0.46,
0.757,-0.32,0.09,-2.41,-0.84,0.79,0.46,
0.762,-0.32,0.09,-2.41,-0.75,0.52,0.45,
0.763,-0.37,-0.15,-1.13,-0.75,0.52,0.45,
0.765,-0.41,-0.30,-0.22,-0.75,0.52,0.45,
0.766,-0.41,-0.30,-0.22,-0.58,0.22,0.45,
0.77,-0.50,-0.26,0.37,-0.58,0.22,0.45,
0.771,-0.50,-0.26,0.37,-0.35,-0.09,0.44,
0.775,-0.61,-0.16,0.63,-0.35,-0.09,0.44,
0.776,-0.61,-0.16,0.63,-0.10,-0.39,0.44,
0.785,-0.74,-0.09,0.53,-0.10,-0.39,0.44,
0.786,-0.74,-0.09,0.53,0.17,-0.66,0.44,
0.787,-0.74,-0.09,0.53,0.43,-0.89,0.45,
0.787,-0.91,-0.06,0.28,0.43,-0.89,0.45,
0.79,-0.91,-0.06,0.28,0.66,-1.08,0.46,
0.791,-0.99,-0.06,-0.05,0.66,-1.08,0.46,
0.797,-0.99,-0.06,-0.05,0.86,-1.23,0.48,
0.798,-1.00,-0.04,-0.43,0.86,-1.23,0.48,
0.8,-1.00,-0.04,-0.43,1.03,-1.33,0.51,
0.8,-0.97,0.00,-0.84,1.03,-1.33,0.51,
0.805,-0.93,0.10,-1.28,1.03,-1.33,0.51,
0.805,-0.93,0.10,-1.28,1.16,-1.38,0.54,
0.81,-0.93,0.10,-1.28,1.27,-1.40,0.57,
0.811,-0.93,0.14,-1.61,1.27,-1.40,0.57,
0.815,-0.93,0.14,-1.61,1.35,-1.39,0.60,
0.815,-0.99,0.22,-1.85,1.35,-1.39,0.60,
0.819,-1.03,0.30,-2.05,1.35,-1.39,0.60,
0.82,-1.03,0.30,-2.05,1.42,-1.38,0.63,
0.824,-1.04,0.47,-2.27,1.42,-1.38,0.63,
0.825,-1.04,0.47,-2.27,1.49,-1.35,0.67,
0.836,-0.87,0.74,-2.51,1.49,-1.35,0.67,
0.875,-0.87,0.74,-2.51,1.55,-1.32,0.71,
0.875,-0.67,1.03,-2.87,1.55,-1.32,0.71,
0.875,-0.67,1.03,-2.87,1.62,-1.30,0.73,
0.876,-0.67,1.03,-2.87,1.69,-1.30,0.74,
0.876,-0.51,1.22,-3.39,1.69,-1.30,0.74,
0.877,-0.51,1.22,-3.39,1.76,-1.34,0.74,
0.877,-0.20,1.48,-4.12,1.76,-1.34,0.74,
0.878,0.20,1.76,-5.20,1.76,-1.34,0.74,
0.878,0.20,1.76,-5.20,1.83,-1.40,0.73,
0.879,0.35,1.96,-6.31,1.83,-1.40,0.73,
0.879,0.35,1.96,-6.31,1.85,-1.46,0.71,
0.879,0.35,1.96,-6.31,1.85,-1.52,0.67,
0.88,0.37,2.24,-7.11,1.85,-1.52,0.67,
0.88,0.57,2.53,-7.62,1.85,-1.52,0.67,
0.881,0.57,2.53,-7.62,1.84,-1.60,0.64,
0.881,0.95,2.92,-8.06,1.84,-1.60,0.64,
0.881,0.95,2.92,-8.06,1.85,-1.72,0.60,
0.882,0.95,2.92,-8.06,1.89,-1.85,0.57,
0.882,1.04,3.20,-8.58,1.89,-1.85,0.57,
0.883,1.11,3.35,-9.03,1.89,-1.85,0.57,
0.883,1.11,3.35,-9.03,1.94,-2.00,0.54,
0.883,1.11,3.35,-9.03,2.02,-2.15,0.54,
0.884,1.10,3.45,-9.76,2.02,-2.15,0.54,
0.89,1.10,3.45,-9.76,2.11,-2.28,0.58,
0.89,0.99,3.48,-10.84,2.11,-2.28,0.58,
0.893,0.99,3.48,-10.84,2.20,-2.34,0.69,
0.894,1.29,3.77,-12.03,2.20,-2.34,0.69,
0.897,1.29,3.77,-12.03,2.27,-2.31,0.83,
0.898,2.19,4.35,-13.39,2.27,-2.31,0.83,
0.902,2.19,4.35,-13.39,2.31,-2.24,0.95,
0.903,3.33,4.70,-15.32,2.31,-2.24,0.95,
0.907,3.33,4.70,-15.32,2.30,-2.18,1.06,
0.908,4.06,4.76,-17.77,2.30,-2.18,1.06,
0.912,4.69,4.89,-20.10,2.30,-2.18,1.06,
0.913,4.69,4.89,-20.10,2.21,-2.17,1.17,
0.917,5.87,5.10,-22.01,2.21,-2.17,1.17,
0.918,5.87,5.10,-22.01,2.06,-2.25,1.26,
0.922,5.87,5.10,-22.01,1.86,-2.41,1.32,
0.922,7.38,5.22,-23.66,1.86,-2.41,1.32,
0.927,9.04,5.28,-24.86,1.86,-2.41,1.32,
0.927,9.04,5.28,-24.86,1.62,-2.68,1.35,
0.938,10.90,5.34,-25.56,1.62,-2.68,1.35,
0.939,10.90,5.34,-25.56,1.37,-3.03,1.32,
0.939,10.90,5.34,-25.56,1.12,-3.40,1.25,
0.939,12.73,5.36,-25.92,1.12,-3.40,1.25,
0.941,12.73,5.36,-25.92,0.86,-3.75,1.11,
0.941,14.20,5.23,-25.95,0.86,-3.75,1.11,
0.961,14.20,5.23,-25.95,0.60,-4.05,0.93,
0.962,15.24,5.04,-25.63,0.60,-4.05,0.93,
0.963,15.24,5.04,-25.63,0.34,-4.33,0.74,
0.963,15.82,4.83,-25.02,0.34,-4.33,0.74,
0.964,16.11,4.52,-24.37,0.34,-4.33,0.74,
0.964,16.11,4.52,-24.37,0.10,-4.59,0.56,
0.964,16.25,4.15,-23.51,0.10,-4.59,0.56,
0.965,16.25,4.15,-23.51,-0.14,-4.83,0.39,
0.983,16.25,4.15,-23.51,-0.35,-5.09,0.25,
0.984,16.43,3.66,-22.40,-0.35,-5.09,0.25,
0.985,16.74,3.15,-21.07,-0.35,-5.09,0.25,
0.985,16.74,3.15,-21.07,-0.53,-5.34,0.13,
0.986,17.32,2.73,-19.57,-0.53,-5.34,0.13,
0.986,17.32,2.73,-19.57,-0.66,-5.59,0.04,
0.987,18.05,2.46,-18.00,-0.66,-5.59,0.04,
0.987,18.05,2.46,-18.00,-0.75,-5.82,-0.03,
0.987,18.05,2.46,-18.00,-0.78,-6.03,-0.10,
0.988,18.86,2.28,-16.58,-0.78,-6.03,-0.10,
0.99,19.66,2.05,-15.50,-0.78,-6.03,-0.10,
0.991,19.66,2.05,-15.50,-0.77,-6.24,-0.17,
0.995,20.56,1.73,-14.86,-0.77,-6.24,-0.17,
0.997,20.56,1.73,-14.86,-0.74,-6.42,-0.24,
1.0,21.84,1.43,-14.33,-0.74,-6.42,-0.24,
1.001,21.84,1.43,-14.33,-0.72,-6.58,-0.29,
1.005,23.55,1.33,-13.72,-0.72,-6.58,-0.29,
1.006,23.55,1.33,-13.72,-0.71,-6.70,-0.37,
1.01,25.27,1.26,-13.12,-0.71,-6.70,-0.37,
1.01,25.27,1.26,-13.12,-0.74,-6.78,-0.48,
1.015,26.47,1.16,-12.63,-0.74,-6.78,-0.48,
1.016,26.47,1.16,-12.63,-0.79,-6.86,-0.64,
1.019,27.25,0.93,-12.08,-0.79,-6.86,-0.64,
1.02,27.25,0.93,-12.08,-0.87,-6.91,-0.83,
1.024,27.25,0.93,-12.08,-0.97,-6.94,-1.01,
1.025,27.83,0.69,-11.30,-0.97,-6.94,-1.01,
1.036,27.83,0.69,-11.30,-1.08,-6.96,-1.16,
1.037,28.22,0.38,-10.38,-1.08,-6.96,-1.16,
1.038,28.50,-0.10,-9.36,-1.08,-6.96,-1.16,
1.039,28.50,-0.10,-9.36,-1.19,-6.99,-1.28,
1.039,28.75,-0.43,-8.52,-1.19,-6.99,-1.28,
1.04,28.75,-0.43,-8.52,-1.29,-7.03,-1.37,
1.045,28.75,-0.43,-8.52,-1.38,-7.11,-1.40,
1.046,28.80,-0.73,-7.87,-1.38,-7.11,-1.40,
1.061,29.11,-0.91,-7.30,-1.38,-7.11,-1.40,
1.062,29.11,-0.91,-7.30,-1.49,-7.23,-1.37,
1.063,30.04,-0.93,-6.78,-1.49,-7.23,-1.37,
1.064,30.04,-0.93,-6.78,-1.62,-7.41,-1.28,
1.064,31.57,-0.76,-6.16,-1.62,-7.41,-1.28,
1.065,31.57,-0.76,-6.16,-1.78,-7.64,-1.17,
1.065,31.57,-0.76,-6.16,-1.98,-7.89,-1.09,
1.066,33.69,-0.66,-5.49,-1.98,-7.89,-1.09,
1.068,35.95,-0.67,-4.53,-1.98,-7.89,-1.09,
1.069,35.95,-0.67,-4.53,-2.22,-8.14,-1.04,
1.073,38.17,-0.83,-3.25,-2.22,-8.14,-1.04,
1.111,38.17,-0.83,-3.25,-2.51,-8.35,-1.02,
1.112,38.17,-0.83,-3.25,-2.81,-8.45,-1.03,
1.112,38.37,-1.19,-1.79,-2.81,-8.45,-1.03,
1.113,38.40,-1.70,-0.44,-2.81,-8.45,-1.03,
1.114,38.40,-1.70,-0.44,-3.14,-8.39,-1.10,
1.114,38.43,-2.46,0.76,-3.14,-8.39,-1.10,
1.115,38.43,-2.46,0.76,-3.48,-8.16,-1.22,
1.115,38.47,-3.37,2.03,-3.48,-8.16,-1.22,
1.116,38.47,-3.37,2.03,-3.84,-7.81,-1.41,
1.117,38.51,-4.43,3.66,-3.84,-7.81,-1.41,
1.117,38.51,-4.43,3.66,-4.21,-7.36,-1.63,
1.118,38.51,-4.43,3.66,-4.56,-6.84,-1.87,
1.118,38.55,-5.54,5.60,-4.56,-6.84,-1.87,
1.119,38.60,-6.66,7.59,-4.56,-6.84,-1.87,
1.119,38.60,-6.66,7.59,-4.84,-6.30,-2.12,
1.12,38.66,-7.78,9.70,-4.84,-6.30,-2.12,
1.12,38.66,-7.78,9.70,-5.04,-5.78,-2.39,
1.121,38.72,-8.83,11.79,-5.04,-5.78,-2.39,
1.121,38.72,-8.83,11.79,-5.13,-5.33,-2.65,
1.122,38.72,-8.83,11.79,-5.09,-5.00,-2.90,
1.122,38.79,-9.86,13.79,-5.09,-5.00,-2.90,
1.13,37.93,-10.79,15.57,-5.09,-5.00,-2.90,
1.131,37.93,-10.79,15.57,-4.93,-4.78,-3.13,
1.132,37.93,-10.79,15.57,-4.63,-4.66,-3.32,
1.132,36.25,-11.62,17.11,-4.63,-4.66,-3.32,
1.137,36.25,-11.62,17.11,-4.22,-4.66,-3.48,
1.137,34.72,-12.35,18.31,-4.22,-4.66,-3.48,
1.142,33.25,-13.12,19.18,-4.22,-4.66,-3.48,
1.143,33.25,-13.12,19.18,-3.71,-4.75,-3.62,
1.147,31.76,-13.79,19.65,-3.71,-4.75,-3.62,
1.148,31.76,-13.79,19.65,-3.13,-4.92,-3.72,
1.151,31.76,-13.79,19.65,-2.50,-5.14,-3.80,
1.152,30.44,-14.35,19.75,-2.50,-5.14,-3.80,
1.156,29.14,-15.02,19.60,-2.50,-5.14,-3.80,
1.157,29.14,-15.02,19.60,-1.84,-5.42,-3.86,
1.161,29.14,-15.02,19.60,-1.18,-5.73,-3.90,
1.162,27.73,-15.62,19.14,-1.18,-5.73,-3.90,
1.171,27.73,-15.62,19.14,-0.53,-6.06,-3.90,
1.172,26.49,-15.96,18.52,-0.53,-6.06,-3.90,
1.172,26.49,-15.96,18.52,0.11,-6.38,-3.88,
1.173,25.82,-16.19,17.80,0.11,-6.38,-3.88,
1.195,25.18,-16.75,16.68,0.11,-6.38,-3.88,
1.196,25.18,-16.75,16.68,0.71,-6.71,-3.87,
1.197,25.18,-16.75,16.68,1.26,-7.06,-3.87,
1.197,24.10,-17.18,15.65,1.26,-7.06,-3.87,
1.198,23.02,-17.45,14.65,1.26,-7.06,-3.87,
1.198,23.02,-17.45,14.65,1.74,-7.38,-3.86,
1.199,23.02,-17.45,14.65,2.15,-7.65,-3.86,
1.199,21.89,-17.82,13.29,2.15,-7.65,-3.86,
1.2,20.03,-18.36,11.72,2.15,-7.65,-3.86,
1.201,20.03,-18.36,11.72,2.47,-7.84,-3.84,
1.201,20.03,-18.36,11.72,2.68,-7.97,-3.77,
1.202,17.97,-18.55,10.19,2.68,-7.97,-3.77,
1.24,17.97,-18.55,10.19,2.78,-8.01,-3.64,
1.241,16.40,-18.65,8.77,2.78,-8.01,-3.64,
1.241,16.40,-18.65,8.77,2.77,-7.97,-3.47,
1.242,15.17,-18.78,7.42,2.77,-7.97,-3.47,
1.242,14.10,-18.73,6.27,2.77,-7.97,-3.47,
1.243,14.10,-18.73,6.27,2.65,-7.90,-3.26,
1.244,13.04,-18.50,5.32,2.65,-7.90,-3.26,
1.245,13.04,-18.50,5.32,2.45,-7.79,-3.02,
1.245,11.97,-18.40,4.68,2.45,-7.79,-3.02,
1.246,11.97,-18.40,4.68,2.18,-7.64,-2.76,
1.246,11.97,-18.40,4.68,1.87,-7.47,-2.47,
1.247,10.85,-18.39,4.50,1.87,-7.47,-2.47,
1.247,9.73,-18.33,4.92,1.87,-7.47,-2.47,
1.248,9.73,-18.33,4.92,1.56,-7.34,-2.12,
1.249,8.92,-18.10,5.67,1.56,-7.34,-2.12,
1.249,8.92,-18.10,5.67,1.29,-7.28,-1.70,
1.249,8.79,-17.56,6.58,1.29,-7.28,-1.70,
1.25,8.79,-17.56,6.58,1.07,-7.30,-1.22,
1.25,9.31,-16.95,7.56,1.07,-7.30,-1.22,
1.251,9.31,-16.95,7.56,0.91,-7.39,-0.70,
1.26,10.53,-16.26,8.48,0.91,-7.39,-0.70,
1.261,10.53,-16.26,8.48,0.82,-7.50,-0.17,
1.262,12.46,-15.42,9.44,0.82,-7.50,-0.17,
1.263,12.46,-15.42,9.44,0.78,-7.62,0.32,
1.287,12.46,-15.42,9.44,0.79,-7.69,0.74,
1.288,14.92,-14.48,10.41,0.79,-7.69,0.74,
1.288,17.30,-13.67,11.29,0.79,-7.69,0.74,
1.289,17.30,-13.67,11.29,0.85,-7.68,1.04,
1.29,19.28,-12.83,12.01,0.85,-7.68,1.04,
1.29,19.28,-12.83,12.01,0.94,-7.57,1.23,
1.291,19.28,-12.83,12.01,1.05,-7.38,1.33,
1.291,20.69,-11.84,12.45,1.05,-7.38,1.33,
1.292,20.69,-11.84,12.45,1.17,-7.11,1.35,
1.292,21.53,-10.81,12.64,1.17,-7.11,1.35,
1.293,21.53,-10.81,12.64,1.27,-6.77,1.33,
1.293,21.53,-9.88,12.52,1.27,-6.77,1.33,
1.294,21.53,-9.88,12.52,1.34,-6.39,1.30,
1.295,20.77,-9.14,12.15,1.34,-6.39,1.30,
1.307,20.77,-9.14,12.15,1.39,-6.01,1.29,
1.308,19.61,-8.39,11.64,1.39,-6.01,1.29,
1.308,19.61,-8.39,11.64,1.39,-5.65,1.31,
1.309,18.15,-7.51,10.93,1.39,-5.65,1.31,
1.309,18.15,-7.51,10.93,1.35,-5.33,1.36,
1.309,16.47,-6.66,10.03,1.35,-5.33,1.36,
1.318,16.47,-6.66,10.03,1.28,-5.06,1.47,
1.319,15.13,-5.92,9.21,1.28,-5.06,1.47,
1.319,15.13,-5.92,9.21,1.17,-4.86,1.61,
1.356,14.49,-5.41,8.53,1.17,-4.86,1.61,
1.357,14.49,-5.41,8.53,1.02,-4.75,1.75,
1.357,14.47,-4.99,8.05,1.02,-4.75,1.75,
1.358,14.77,-4.71,7.72,1.02,-4.75,1.75,
1.358,14.77,-4.71,7.72,0.86,-4.69,1.86,
1.358,14.77,-4.71,7.72,0.68,-4.66,1.90,
1.359,15.03,-4.54,7.44,0.68,-4.66,1.90,
1.359,15.03,-4.54,7.44,0.47,-4.62,1.89,
1.359,14.97,-4.40,7.18,0.47,-4.62,1.89,
1.36,14.45,-4.39,6.90,0.47,-4.62,1.89,
1.36,14.45,-4.39,6.90,0.23,-4.58,1.82,
1.361,13.45,-4.62,6.70,0.23,-4.58,1.82,
1.362,13.45,-4.62,6.70,-0.04,-4.52,1.72,
1.362,12.11,-4.98,6.53,-0.04,-4.52,1.72,
1.363,12.11,-4.98,6.53,-0.36,-4.46,1.61,
1.363,10.34,-5.38,6.60,-0.36,-4.46,1.61,
1.364,10.34,-5.38,6.60,-0.71,-4.41,1.52,
1.364,8.12,-5.89,6.79,-0.71,-4.41,1.52,
1.364,8.12,-5.89,6.79,-1.08,-4.34,1.45,
1.38,5.68,-6.34,7.21,-1.08,-4.34,1.45,
1.38,5.68,-6.34,7.21,-1.47,-4.25,1.43,
1.381,3.23,-6.50,7.92,-1.47,-4.25,1.43,
1.381,3.23,-6.50,7.92,-1.87,-4.14,1.47,
1.381,1.15,-6.46,9.11,-1.87,-4.14,1.47,
1.382,1.15,-6.46,9.11,-2.26,-4.03,1.57,
1.382,1.15,-6.46,9.11,-2.60,-3.93,1.71,
1.383,-0.56,-6.20,10.78,-2.60,-3.93,1.71,
1.404,-0.56,-6.20,10.78,-2.86,-3.83,1.89,
1.405,-1.69,-5.99,12.95,-2.86,-3.83,1.89,
1.406,-1.69,-5.99,12.95,-3.01,-3.72,2.08,
1.406,-2.30,-5.88,15.40,-3.01,-3.72,2.08,
1.407,-2.30,-5.88,15.40,-3.05,-3.60,2.28,
1.407,-2.75,-5.69,17.91,-3.05,-3.60,2.28,
1.408,-2.75,-5.69,17.91,-2.95,-3.47,2.47,
1.408,-3.01,-5.42,20.01,-2.95,-3.47,2.47,
1.409,-3.01,-5.42,20.01,-2.74,-3.36,2.65,
1.409,-3.00,-5.12,21.56,-2.74,-3.36,2.65,
1.409,-3.00,-5.12,21.56,-2.43,-3.28,2.81,
1.41,-2.90,-4.86,22.59,-2.43,-3.28,2.81,
1.419,-2.90,-4.86,22.59,-2.06,-3.25,2.95,
1.42,-2.13,-4.58,23.10,-2.06,-3.25,2.95,
1.422,-2.13,-4.58,23.10,-1.65,-3.27,3.07,
1.423,-1.13,-4.09,23.45,-1.65,-3.27,3.07,
1.426,0.05,-3.41,23.61,-1.65,-3.27,3.07,
1.427,0.05,-3.41,23.61,-1.24,-3.34,3.14,
1.472,1.29,-2.72,23.22,-1.24,-3.34,3.14,
1.473,1.29,-2.72,23.22,-0.82,-3.42,3.16,
1.474,2.33,-1.99,22.64,-0.82,-3.42,3.16,
1.474,2.33,-1.99,22.64,-0.44,-3.52,3.12,
1.475,2.81,-1.10,21.66,-0.44,-3.52,3.12,
1.475,2.81,-1.10,21.66,-0.14,-3.62,3.04,
1.475,2.90,-0.25,20.11,-0.14,-3.62,3.04,
1.476,2.90,-0.25,20.11,0.05,-3.69,2.95,
1.476,3.16,0.57,18.53,0.05,-3.69,2.95,
1.477,3.16,0.57,18.53,0.09,-3.73,2.89,
1.477,3.84,1.43,17.35,0.09,-3.73,2.89,
1.477,3.84,1.43,17.35,-0.03,-3.70,2.85,
1.478,4.63,2.17,16.74,-0.03,-3.70,2.85,
1.478,4.63,2.17,16.74,-0.30,-3.54,2.81,
1.479,5.26,2.78,16.61,-0.30,-3.54,2.81,
1.479,5.26,2.78,16.61,-0.69,-3.24,2.76,
1.479,5.26,2.78,16.61,-1.15,-2.82,2.70,
1.48,6.00,3.22,16.70,-1.15,-2.82,2.70,
1.48,6.00,3.22,16.70,-1.67,-2.35,2.63,
1.481,6.89,3.53,17.24,-1.67,-2.35,2.63,
1.482,7.61,3.96,18.65,-1.67,-2.35,2.63,
1.482,7.61,3.96,18.65,-2.20,-1.88,2.53,
1.486,7.61,3.96,18.65,-2.68,-1.45,2.39,
1.486,8.13,4.34,20.97,-2.68,-1.45,2.39,
1.488,8.32,4.54,23.73,-2.68,-1.45,2.39,
1.489,8.32,4.54,23.73,-3.06,-1.05,2.23,
1.493,8.32,4.54,23.73,-3.30,-0.71,2.04,
1.493,8.32,4.55,26.68,-3.30,-0.71,2.04,
1.502,7.84,4.29,29.10,-3.30,-0.71,2.04,
1.503,7.84,4.29,29.10,-3.39,-0.39,1.82,
1.504,7.03,3.82,31.11,-3.39,-0.39,1.82,
1.504,7.03,3.82,31.11,-3.35,-0.09,1.59,
1.507,6.03,3.37,32.99,-3.35,-0.09,1.59,
1.508,6.03,3.37,32.99,-3.18,0.18,1.39,
1.526,6.03,3.37,32.99,-2.90,0.39,1.22,
1.527,4.88,2.88,34.52,-2.90,0.39,1.22,
1.527,3.52,2.39,35.42,-2.90,0.39,1.22,
1.528,3.52,2.39,35.42,-2.51,0.55,1.07,
1.528,2.11,1.89,35.63,-2.51,0.55,1.07,
1.528,2.11,1.89,35.63,-2.04,0.68,0.97,
1.529,0.96,1.51,35.14,-2.04,0.68,0.97,
1.53,0.96,1.51,35.14,-1.53,0.80,0.92,
1.533,0.96,1.51,35.14,-1.03,0.93,0.92,
1.533,0.14,1.32,34.04,-1.03,0.93,0.92,
1.537,0.14,1.32,34.04,-0.55,1.09,0.95,
1.537,-0.37,1.38,32.58,-0.55,1.09,0.95,
1.542,-0.38,1.69,30.74,-0.55,1.09,0.95,
1.542,-0.38,1.69,30.74,-0.12,1.28,1.00,
1.547,0.00,2.11,28.64,-0.12,1.28,1.00,
1.548,0.00,2.11,28.64,0.25,1.49,1.06,
1.551,0.80,2.58,26.55,0.25,1.49,1.06,
1.552,0.80,2.58,26.55,0.54,1.69,1.11,
1.556,1.81,3.12,24.57,0.54,1.69,1.11,
1.557,1.81,3.12,24.57,0.77,1.88,1.14,
1.56,2.83,3.83,22.88,0.77,1.88,1.14,
1.6,2.83,3.83,22.88,0.93,2.05,1.13,
1.6,3.85,4.45,21.35,0.93,2.05,1.13,
1.601,3.85,4.45,21.35,1.05,2.25,1.10,
1.602,4.90,4.90,19.98,1.05,2.25,1.10,
1.602,4.90,4.90,19.98,1.12,2.47,1.06,
1.603,5.97,5.24,18.84,1.12,2.47,1.06,
1.603,5.97,5.24,18.84,1.16,2.68,0.99,
1.604,5.97,5.24,18.84,1.18,2.89,0.91,
1.604,6.74,5.46,17.85,1.18,2.89,0.91,
1.605,6.74,5.46,17.85,1.19,3.09,0.81,
1.605,7.10,5.51,16.86,1.19,3.09,0.81,
1.606,7.21,5.43,15.95,1.19,3.09,0.81,
1.606,7.21,5.43,15.95,1.20,3.27,0.71,
1.606,7.21,5.43,15.95,1.21,3.42,0.62,
1.607,7.36,5.27,15.28,1.21,3.42,0.62,
1.607,7.51,5.18,14.77,1.21,3.42,0.62,
1.608,7.51,5.18,14.77,1.22,3.52,0.54,
1.608,7.64,5.18,14.13,1.22,3.52,0.54,
1.609,7.64,5.18,14.13,1.25,3.59,0.48,
1.616,7.64,5.18,14.13,1.27,3.63,0.41,
1.616,7.73,5.27,13.32,1.27,3.63,0.41,
1.617,7.94,5.41,12.40,1.27,3.63,0.41,
1.617,7.94,5.41,12.40,1.29,3.68,0.37,
1.619,7.94,5.41,12.40,1.28,3.73,0.33,
1.62,8.43,5.51,11.38,1.28,3.73,0.33,
1.624,8.98,5.53,10.38,1.28,3.73,0.33,
1.625,8.98,5.53,10.38,1.24,3.76,0.29,
1.637,8.98,5.53,10.38,1.16,3.79,0.23,
1.638,9.39,5.59,9.34,1.16,3.79,0.23,
1.639,9.44,5.82,8.32,1.16,3.79,0.23,
1.639,9.44,5.82,8.32,1.03,3.84,0.17,
1.641,9.44,5.82,8.32,0.85,3.92,0.12,
1.641,9.15,5.99,7.47,0.85,3.92,0.12,
1.646,9.15,5.99,7.47,0.62,4.03,0.09,
1.647,9.06,6.07,7.01,0.62,4.03,0.09,
1.664,9.25,6.12,7.02,0.62,4.03,0.09,
1.664,9.25,6.12,7.02,0.36,4.15,0.07,
1.664,9.25,6.12,7.02,0.10,4.28,0.04,
1.665,9.50,6.24,7.25,0.10,4.28,0.04,
1.665,9.50,6.24,7.25,-0.15,4.42,-0.00,
1.665,9.81,6.47,7.85,-0.15,4.42,-0.00,
1.666,9.81,6.47,7.85,-0.36,4.58,-0.03,
1.668,10.33,6.59,8.71,-0.36,4.58,-0.03,
1.669,10.33,6.59,8.71,-0.52,4.74,-0.07,
1.669,11.15,6.42,9.69,-0.52,4.74,-0.07,
1.673,11.15,6.42,9.69,-0.61,4.89,-0.13,
1.673,12.24,6.04,10.61,-0.61,4.89,-0.13,
1.678,12.24,6.04,10.61,-0.64,5.03,-0.23,
1.678,13.19,5.44,11.28,-0.64,5.03,-0.23,
1.708,13.19,5.44,11.28,-0.62,5.16,-0.35,
1.709,14.10,5.21,12.29,-0.62,5.16,-0.35,
1.709,14.10,5.21,12.29,-0.49,5.35,-0.54,
1.71,15.70,4.42,13.15,-0.49,5.35,-0.54,
1.71,15.70,4.42,13.15,-0.30,5.45,-0.78,
1.711,15.06,1.59,10.98,-0.30,5.45,-0.78,
1.711,15.06,1.59,10.98,-0.33,5.27,-0.89,
1.712,13.13,-0.07,9.22,-0.33,5.27,-0.89,
1.712,13.13,-0.07,9.22,-0.46,5.34,-0.85,
1.712,12.86,-0.72,8.92,-0.46,5.34,-0.85,
1.713,13.08,-1.31,9.93,-0.46,5.34,-0.85,
1.713,13.08,-1.31,9.93,-0.58,5.56,-0.82,
1.714,13.08,-1.31,9.93,-0.68,5.67,-0.83,
1.714,12.80,-2.34,11.27,-0.68,5.67,-0.83,
1.724,12.53,-3.68,12.50,-0.68,5.67,-0.83,
1.725,12.53,-3.68,12.50,-0.73,5.69,-0.80,
1.725,12.53,-3.68,12.50,-0.70,5.73,-0.70,
1.726,12.65,-4.74,13.69,-0.70,5.73,-0.70,
1.726,12.65,-4.74,13.69,-0.60,5.79,-0.55,
1.727,13.27,-5.35,15.32,-0.60,5.79,-0.55,
1.751,14.08,-5.73,17.52,-0.60,5.79,-0.55,
1.752,14.08,-5.73,17.52,-0.40,5.84,-0.42,
1.753,14.08,-5.73,17.52,-0.09,5.82,-0.29,
1.753,14.89,-6.32,19.61,-0.09,5.82,-0.29,
1.754,15.74,-6.97,21.26,-0.09,5.82,-0.29,
1.754,15.74,-6.97,21.26,0.35,5.69,-0.16,
1.755,16.84,-7.21,22.30,0.35,5.69,-0.16,
1.755,16.84,-7.21,22.30,0.89,5.49,-0.02,
1.756,18.66,-7.15,22.72,0.89,5.49,-0.02,
1.757,18.66,-7.15,22.72,1.51,5.27,0.13,
1.757,18.66,-7.15,22.72,2.18,5.06,0.24,
1.757,20.82,-7.01,22.69,2.18,5.06,0.24,
1.761,20.82,-7.01,22.69,2.86,4.83,0.26,
1.761,22.85,-7.00,22.14,2.86,4.83,0.26,
1.776,22.85,-7.00,22.14,3.54,4.59,0.20,
1.778,24.40,-7.11,20.78,3.54,4.59,0.20,
1.778,25.41,-7.23,18.77,3.54,4.59,0.20,
1.779,25.41,-7.23,18.77,4.15,4.38,0.10,
1.779,25.41,-7.23,18.77,4.67,4.21,-0.01,
1.78,26.09,-7.32,16.45,4.67,4.21,-0.01,
1.782,26.09,-7.32,16.45,5.04,4.09,-0.12,
1.782,26.80,-7.31,14.05,5.04,4.09,-0.12,
1.786,26.80,-7.31,14.05,5.28,4.06,-0.21,
1.786,27.61,-7.19,11.67,5.28,4.06,-0.21,
1.79,27.61,-7.19,11.67,5.37,4.11,-0.31,
1.791,28.55,-7.05,9.45,5.37,4.11,-0.31,
1.795,28.55,-7.05,9.45,5.34,4.24,-0.41,
1.795,29.46,-6.90,7.51,5.34,4.24,-0.41,
1.803,30.30,-6.69,5.59,5.34,4.24,-0.41,
1.804,30.30,-6.69,5.59,5.20,4.43,-0.51,
1.804,30.30,-6.69,5.59,4.97,4.67,-0.63,
1.836,30.98,-6.42,3.87,4.97,4.67,-0.63,
1.837,31.35,-6.20,2.43,4.97,4.67,-0.63,
1.838,31.35,-6.20,2.43,4.66,4.94,-0.75,
1.838,31.51,-6.05,1.49,4.66,4.94,-0.75,
1.839,31.51,-6.05,1.49,4.30,5.24,-0.86,
1.839,31.54,-5.95,1.02,4.30,5.24,-0.86,
1.839,31.54,-5.95,1.02,3.90,5.54,-0.95,
1.84,31.54,-5.95,1.02,3.51,5.83,-1.03,
1.84,31.33,-6.05,0.87,3.51,5.83,-1.03,
1.841,31.06,-6.13,0.95,3.51,5.83,-1.03,
1.841,31.06,-6.13,0.95,3.13,6.11,-1.10,
1.842,30.72,-6.28,1.23,3.13,6.11,-1.10,
1.842,30.72,-6.28,1.23,2.79,6.36,-1.13,
1.843,30.49,-6.53,1.92,2.79,6.36,-1.13,
1.843,30.49,-6.53,1.92,2.49,6.58,-1.14,
1.844,30.34,-6.87,2.71,2.49,6.58,-1.14,
1.844,30.34,-6.87,2.71,2.26,6.75,-1.13,
1.848,30.20,-7.23,3.52,2.26,6.75,-1.13,
1.849,30.20,-7.23,3.52,2.09,6.89,-1.10,
1.853,30.00,-7.61,4.10,2.09,6.89,-1.10,
1.854,30.00,-7.61,4.10,2.00,6.99,-1.08,
1.859,29.80,-8.07,4.47,2.00,6.99,-1.08,
1.859,29.80,-8.07,4.47,1.96,7.03,-1.06,
1.864,29.80,-8.07,4.47,1.98,7.04,-1.02,
1.865,29.71,-8.48,4.54,1.98,7.04,-1.02,
1.868,29.83,-8.78,4.56,1.98,7.04,-1.02,
1.869,29.83,-8.78,4.56,2.02,7.00,-0.98,
1.873,30.14,-9.09,4.48,2.02,7.00,-0.98,
1.874,30.14,-9.09,4.48,2.07,6.94,-0.93,
1.878,30.44,-9.42,4.48,2.07,6.94,-0.93,
1.878,30.44,-9.42,4.48,2.13,6.86,-0.90,
1.883,30.44,-9.42,4.48,2.19,6.79,-0.87,
1.884,30.72,-9.74,4.45,2.19,6.79,-0.87,
1.888,31.01,-10.10,4.39,2.19,6.79,-0.87,
1.888,31.01,-10.10,4.39,2.26,6.73,-0.87,
1.892,31.20,-10.48,4.13,2.26,6.73,-0.87,
1.893,31.20,-10.48,4.13,2.32,6.72,-0.86,
1.906,31.20,-10.48,4.13,2.36,6.76,-0.87,
1.907,31.28,-10.92,3.59,2.36,6.76,-0.87,
1.908,31.23,-11.35,2.96,2.36,6.76,-0.87,
1.908,31.23,-11.35,2.96,2.37,6.86,-0.88,
1.909,31.23,-11.35,2.96,2.34,7.01,-0.87,
1.909,31.10,-11.78,2.34,2.34,7.01,-0.87,
1.912,31.10,-11.78,2.34,2.28,7.19,-0.85,
1.913,31.14,-12.10,1.90,2.28,7.19,-0.85,
1.929,31.14,-12.10,1.90,2.18,7.37,-0.81,
1.93,31.35,-12.38,1.57,2.18,7.37,-0.81,
1.931,31.35,-12.38,1.57,2.09,7.54,-0.76,
1.932,31.44,-12.77,1.38,2.09,7.54,-0.76,
1.932,31.44,-12.77,1.38,2.00,7.70,-0.72,
1.933,31.28,-13.08,1.22,2.00,7.70,-0.72,
1.933,31.28,-13.08,1.22,1.92,7.84,-0.66,
1.933,31.00,-13.14,1.15,1.92,7.84,-0.66,
1.938,31.00,-13.14,1.15,1.86,7.95,-0.59,
1.938,31.06,-13.04,1.01,1.86,7.95,-0.59,
1.941,31.06,-13.04,1.01,1.82,7.98,-0.51,
1.942,31.69,-12.87,0.80,1.82,7.98,-0.51,
1.946,32.70,-12.46,0.59,1.82,7.98,-0.51,
1.947,32.70,-12.46,0.59,1.78,7.91,-0.45,
1.951,32.70,-12.46,0.59,1.79,7.76,-0.44,
1.952,33.83,-11.67,0.39,1.79,7.76,-0.44,
1.956,33.83,-11.67,0.39,1.83,7.60,-0.50,
1.957,34.96,-10.67,0.20,1.83,7.60,-0.50,
1.961,34.96,-10.67,0.20,1.93,7.45,-0.61,
1.961,36.04,-9.74,0.07,1.93,7.45,-0.61,
1.966,36.04,-9.74,0.07,2.08,7.29,-0.77,
1.967,36.61,-9.11,-0.08,2.08,7.29,-0.77,
1.971,36.66,-8.75,-0.47,2.08,7.29,-0.77,
1.971,36.66,-8.75,-0.47,2.30,7.13,-0.95,
1.976,34.79,-7.85,0.42,2.30,7.13,-0.95,
1.976,34.79,-7.85,0.42,2.56,7.01,-1.14,
1.98,33.88,-7.59,-0.92,2.56,7.01,-1.14,
1.981,33.88,-7.59,-0.92,2.88,7.04,-1.27,
1.985,33.88,-7.59,-0.92,3.18,7.12,-1.31,
1.986,33.49,-7.40,-4.40,3.18,7.12,-1.31,
1.99,32.89,-7.16,-8.86,3.18,7.12,-1.31,
1.991,32.89,-7.16,-8.86,3.31,7.25,-1.33,
1.995,32.89,-7.16,-8.86,3.24,7.45,-1.36,
1.996,32.86,-6.91,-13.39,3.24,7.45,-1.36,
2.007,33.21,-6.75,-17.21,3.24,7.45,-1.36,
2.009,33.21,-6.75,-17.21,2.94,7.61,-1.42,
2.009,33.21,-6.75,-17.21,2.43,7.71,-1.52,
2.01,32.67,-6.53,-19.65,2.43,7.71,-1.52,
2.011,32.67,-6.53,-19.65,1.81,7.81,-1.66,
2.011,31.19,-6.03,-20.66,1.81,7.81,-1.66,
2.038,29.16,-5.57,-20.66,1.81,7.81,-1.66,
2.039,29.16,-5.57,-20.66,1.17,7.93,-1.78,
2.04,27.35,-5.32,-20.03,1.17,7.93,-1.78,
2.04,27.35,-5.32,-20.03,0.58,8.02,-1.85,
2.041,25.72,-5.49,-19.10,0.58,8.02,-1.85,
2.041,25.72,-5.49,-19.10,0.07,8.03,-1.89,
2.042,25.72,-5.49,-19.10,-0.36,7.99,-1.90,
2.042,24.06,-5.74,-18.16,-0.36,7.99,-1.90,
2.043,24.06,-5.74,-18.16,-0.69,7.91,-1.88,
2.043,22.31,-5.79,-17.04,-0.69,7.91,-1.88,
2.044,20.70,-5.59,-15.68,-0.69,7.91,-1.88,
2.045,20.70,-5.59,-15.68,-0.94,7.79,-1.84,
2.045,20.70,-5.59,-15.68,-1.07,7.63,-1.75,
2.046,19.59,-5.22,-14.19,-1.07,7.63,-1.75,
2.05,19.59,-5.22,-14.19,-1.10,7.42,-1.66,
2.084,18.72,-4.79,-13.02,-1.10,7.42,-1.66,
2.084,18.72,-4.79,-13.02,-1.06,7.19,-1.56,
2.085,17.86,-4.60,-12.45,-1.06,7.19,-1.56,
2.085,17.86,-4.60,-12.45,-0.99,6.97,-1.46,
2.086,16.99,-4.55,-12.43,-0.99,6.97,-1.46,
2.086,16.99,-4.55,-12.43,-0.92,6.76,-1.35,
2.087,16.33,-4.49,-12.83,-0.92,6.76,-1.35,
2.087,16.33,-4.49,-12.83,-0.88,6.58,-1.23,
2.088,15.90,-4.27,-13.33,-0.88,6.58,-1.23,
2.088,15.50,-4.07,-13.61,-0.88,6.58,-1.23,
2.089,15.50,-4.07,-13.61,-0.87,6.44,-1.11,
2.089,15.50,-4.07,-13.61,-0.88,6.33,-1.01,
2.09,15.01,-3.82,-13.71,-0.88,6.33,-1.01,
2.09,15.01,-3.82,-13.71,-0.89,6.20,-0.91,
2.091,14.56,-3.38,-13.68,-0.89,6.20,-0.91,
2.092,14.56,-3.38,-13.68,-0.92,6.07,-0.81,
2.092,13.98,-3.03,-13.81,-0.92,6.07,-0.81,
2.093,13.57,-2.79,-14.02,-0.92,6.07,-0.81,
2.093,13.57,-2.79,-14.02,-0.95,5.94,-0.69,
2.099,13.57,-2.79,-14.02,-0.99,5.83,-0.57,
2.1,13.26,-2.47,-14.41,-0.99,5.83,-0.57,
2.102,13.21,-2.07,-14.65,-0.99,5.83,-0.57,
2.103,13.21,-2.07,-14.65,-1.06,5.75,-0.45,
2.107,13.21,-2.07,-14.65,-1.14,5.67,-0.35,
2.108,13.61,-1.50,-14.66,-1.14,5.67,-0.35,
2.112,13.61,-1.50,-14.66,-1.23,5.58,-0.28,
2.113,14.28,-0.84,-14.64,-1.23,5.58,-0.28,
2.117,14.28,-0.84,-14.64,-1.30,5.45,-0.28,
2.118,14.69,-0.20,-14.82,-1.30,5.45,-0.28,
2.122,14.77,0.18,-15.10,-1.30,5.45,-0.28,
2.122,14.77,0.18,-15.10,-1.38,5.30,-0.33,
2.127,14.77,0.18,-15.10,-1.48,5.13,-0.41,
2.127,14.49,0.42,-15.22,-1.48,5.13,-0.41,
2.139,13.81,0.50,-15.12,-1.48,5.13,-0.41,
2.139,13.81,0.50,-15.12,-1.58,4.93,-0.50,
2.14,12.73,0.50,-14.76,-1.58,4.93,-0.50,
2.14,12.73,0.50,-14.76,-1.67,4.72,-0.59,
2.142,11.35,0.50,-14.21,-1.67,4.72,-0.59,
2.142,11.35,0.50,-14.21,-1.73,4.51,-0.65,
2.232,11.35,0.50,-14.21,-1.76,4.30,-0.66,
2.233,10.09,0.65,-13.62,-1.76,4.30,-0.66,
2.234,9.02,0.97,-12.98,-1.76,4.30,-0.66,
2.234,9.02,0.97,-12.98,-1.75,4.09,-0.63,
2.235,8.26,1.32,-12.32,-1.75,4.09,-0.63,
2.235,8.26,1.32,-12.32,-1.70,3.90,-0.57,
2.236,8.26,1.32,-12.32,-1.62,3.69,-0.49,
2.236,7.92,1.63,-11.84,-1.62,3.69,-0.49,
2.237,7.82,1.86,-11.78,-1.62,3.69,-0.49,
2.237,7.82,1.86,-11.78,-1.49,3.49,-0.41,
2.238,7.82,1.86,-11.78,-1.36,3.29,-0.34,
2.238,7.76,2.16,-12.05,-1.36,3.29,-0.34,
2.239,7.52,2.43,-12.37,-1.36,3.29,-0.34,
2.239,7.52,2.43,-12.37,-1.24,3.10,-0.28,
2.24,7.52,2.43,-12.37,-1.13,2.92,-0.23,
2.24,7.26,2.97,-12.63,-1.13,2.92,-0.23,
2.241,7.04,3.42,-12.99,-1.13,2.92,-0.23,
2.241,7.04,3.42,-12.99,-1.02,2.74,-0.18,
2.242,7.04,3.42,-12.99,-0.91,2.57,-0.15,
2.242,6.79,3.62,-13.79,-0.91,2.57,-0.15,
2.243,6.54,3.72,-14.78,-0.91,2.57,-0.15,
2.244,6.54,3.72,-14.78,-0.81,2.38,-0.13,
2.244,6.19,3.78,-15.84,-0.81,2.38,-0.13,
2.245,6.19,3.78,-15.84,-0.73,2.17,-0.13,
2.245,5.97,3.93,-16.61,-0.73,2.17,-0.13,
2.246,5.97,3.93,-16.61,-0.69,1.96,-0.12,
2.246,5.42,4.00,-17.10,-0.69,1.96,-0.12,
2.247,5.42,4.00,-17.10,-0.65,1.75,-0.13,
2.247,4.73,3.83,-17.35,-0.65,1.75,-0.13,
2.248,4.73,3.83,-17.35,-0.61,1.57,-0.12,
2.248,4.11,3.57,-17.46,-0.61,1.57,-0.12,
2.249,4.11,3.57,-17.46,-0.53,1.37,-0.09,
2.249,3.75,3.16,-17.47,-0.53,1.37,-0.09,
2.25,3.75,3.16,-17.47,-0.42,1.15,-0.03,
2.25,3.75,3.16,-17.47,-0.27,0.94,0.04,
2.251,3.72,2.65,-17.35,-0.27,0.94,0.04,
2.251,3.70,2.16,-17.30,-0.27,0.94,0.04,
2.252,3.70,2.16,-17.30,-0.06,0.72,0.09,
2.252,3.35,1.84,-17.44,-0.06,0.72,0.09,
2.253,3.35,1.84,-17.44,0.19,0.50,0.12,
2.253,3.35,1.84,-17.44,0.48,0.26,0.14,
2.254,2.77,1.51,-17.79,0.48,0.26,0.14,
2.254,2.77,1.51,-17.79,0.77,0.00,0.17,
2.255,1.95,1.19,-18.34,0.77,0.00,0.17,
2.255,1.25,0.76,-19.06,0.77,0.00,0.17,
2.255,1.25,0.76,-19.06,1.04,-0.30,0.22,
2.268,0.83,0.39,-19.98,1.04,-0.30,0.22,
2.268,0.83,0.39,-19.98,1.30,-0.63,0.30,
2.269,0.42,0.02,-21.09,1.30,-0.63,0.30,
2.269,0.42,0.02,-21.09,1.50,-0.96,0.39,
2.291,0.42,0.02,-21.09,1.64,-1.27,0.50,
2.292,0.42,0.02,-21.09,1.71,-1.55,0.64,
2.292,-0.03,-0.27,-22.23,1.71,-1.55,0.64,
2.293,-0.37,-0.47,-23.20,1.71,-1.55,0.64,
2.293,-0.37,-0.47,-23.20,1.70,-1.81,0.82,
2.294,-0.20,-0.53,-23.73,1.70,-1.81,0.82,
2.294,-0.20,-0.53,-23.73,1.63,-2.05,1.01,
2.295,0.47,-0.50,-23.85,1.63,-2.05,1.01,
2.297,0.47,-0.50,-23.85,1.54,-2.29,1.19,
2.298,1.76,-0.28,-23.55,1.54,-2.29,1.19,
2.299,1.76,-0.28,-23.55,1.45,-2.51,1.35,
2.414,3.37,-0.02,-23.00,1.45,-2.51,1.35,
2.415,4.84,0.13,-22.43,1.45,-2.51,1.35,
2.416,4.84,0.13,-22.43,1.35,-2.72,1.45,
2.417,4.84,0.13,-22.43,1.27,-2.92,1.51,
2.417,6.12,0.34,-21.90,1.27,-2.92,1.51,
2.418,7.34,0.53,-21.50,1.27,-2.92,1.51,
2.419,7.34,0.53,-21.50,1.19,-3.11,1.54,
2.419,8.50,0.73,-21.23,1.19,-3.11,1.54,
2.42,8.50,0.73,-21.23,1.10,-3.29,1.54,
2.421,9.39,0.84,-20.90,1.10,-3.29,1.54,
2.421,9.39,0.84,-20.90,1.00,-3.47,1.53,
2.422,9.92,1.01,-20.50,1.00,-3.47,1.53,
2.422,9.92,1.01,-20.50,0.89,-3.65,1.51,
2.423,10.32,1.21,-19.87,0.89,-3.65,1.51,
2.424,10.32,1.21,-19.87,0.78,-3.84,1.49,
2.424,11.02,1.21,-19.20,0.78,-3.84,1.49,
2.425,11.02,1.21,-19.20,0.67,-4.02,1.49,
2.426,11.02,1.21,-19.20,0.57,-4.22,1.50,
2.426,11.97,1.08,-18.51,0.57,-4.22,1.50,
2.427,12.85,0.99,-17.74,0.57,-4.22,1.50,
2.427,12.85,0.99,-17.74,0.49,-4.41,1.50,
2.428,13.85,1.04,-16.83,0.49,-4.41,1.50,
2.428,13.85,1.04,-16.83,0.43,-4.61,1.49,
2.429,13.85,1.04,-16.83,0.39,-4.80,1.47,
2.429,14.96,1.12,-15.94,0.39,-4.80,1.47,
2.43,15.96,1.09,-15.18,0.39,-4.80,1.47,
2.431,15.96,1.09,-15.18,0.38,-4.98,1.43,
2.431,15.96,1.09,-15.18,0.38,-5.14,1.37,
2.432,16.78,0.92,-14.58,0.38,-5.14,1.37,
2.432,16.78,0.92,-14.58,0.39,-5.30,1.31,
2.433,17.54,0.63,-14.07,0.39,-5.30,1.31,
2.434,18.21,0.34,-13.67,0.39,-5.30,1.31,
2.434,18.21,0.34,-13.67,0.40,-5.46,1.24,
2.435,18.78,0.05,-13.29,0.40,-5.46,1.24,
2.435,18.78,0.05,-13.29,0.41,-5.60,1.18,
2.436,18.78,0.05,-13.29,0.40,-5.74,1.13,
2.436,19.20,-0.09,-12.99,0.40,-5.74,1.13,
2.437,19.20,-0.09,-12.99,0.38,-5.86,1.11,
2.437,19.78,-0.15,-12.80,0.38,-5.86,1.11,
2.438,19.78,-0.15,-12.80,0.35,-5.99,1.12,
2.439,20.61,-0.24,-12.73,0.35,-5.99,1.12,
2.439,20.61,-0.24,-12.73,0.29,-6.11,1.13,
2.439,21.80,-0.33,-12.71,0.29,-6.11,1.13,
2.44,21.80,-0.33,-12.71,0.21,-6.22,1.14,
2.44,23.12,-0.23,-12.81,0.21,-6.22,1.14,
2.441,24.49,0.05,-12.79,0.21,-6.22,1.14,
2.441,24.49,0.05,-12.79,0.09,-6.33,1.14,
2.442,26.22,0.39,-12.72,0.09,-6.33,1.14,
2.442,26.22,0.39,-12.72,-0.06,-6.44,1.11,
2.443,28.34,0.64,-12.50,-0.06,-6.44,1.11,
2.444,28.34,0.64,-12.50,-0.24,-6.54,1.07,
2.444,28.34,0.64,-12.50,-0.46,-6.65,0.99,
2.445,30.54,0.79,-12.09,-0.46,-6.65,0.99,
2.445,32.74,0.93,-11.43,-0.46,-6.65,0.99,
2.446,32.74,0.93,-11.43,-0.70,-6.77,0.86,
2.446,34.97,1.19,-10.61,-0.70,-6.77,0.86,
2.447,34.97,1.19,-10.61,-0.95,-6.88,0.68,
2.447,37.23,1.53,-9.55,-0.95,-6.88,0.68,
2.448,37.23,1.53,-9.55,-1.21,-6.96,0.46,
2.449,37.23,1.53,-9.55,-1.46,-7.02,0.18,
2.449,39.15,1.75,-8.15,-1.46,-7.02,0.18,
2.45,40.33,1.66,-6.26,-1.46,-7.02,0.18,
2.451,40.33,1.66,-6.26,-1.70,-7.04,-0.15,
2.451,40.69,1.33,-4.22,-1.70,-7.04,-0.15,
2.452,40.69,1.33,-4.22,-1.90,-7.05,-0.50,
2.469,40.69,1.33,-4.22,-2.03,-7.07,-0.83,
2.47,40.31,0.93,-2.24,-2.03,-7.07,-0.83,
2.47,39.20,0.37,-0.61,-2.03,-7.07,-0.83,
2.471,39.20,0.37,-0.61,-2.10,-7.10,-1.15,
2.471,37.73,-0.26,0.68,-2.10,-7.10,-1.15,
2.472,37.73,-0.26,0.68,-2.13,-7.10,-1.41,
2.472,36.29,-0.92,1.77,-2.13,-7.10,-1.41,
2.473,36.29,-0.92,1.77,-2.14,-7.08,-1.60,
2.474,36.29,-0.92,1.77,-2.14,-7.02,-1.74,
2.474,34.83,-1.72,2.80,-2.14,-7.02,-1.74,
2.485,33.27,-2.77,4.54,-2.14,-7.02,-1.74,
2.486,33.27,-2.77,4.54,-2.13,-6.93,-1.83,
2.487,31.67,-3.61,7.72,-2.13,-6.93,-1.83,
2.487,31.67,-3.61,7.72,-2.05,-6.74,-1.87,
2.49,31.67,-3.61,7.72,-1.88,-6.54,-1.86,
2.491,29.99,-4.02,6.86,-1.88,-6.54,-1.86,
2.493,29.99,-4.02,6.86,-1.75,-6.48,-1.81,
2.493,28.95,-4.48,5.08,-1.75,-6.48,-1.81,
2.566,28.95,-4.48,5.08,-1.67,-6.41,-1.74,
2.567,28.50,-5.57,4.51,-1.67,-6.41,-1.74,
2.568,28.12,-6.44,5.11,-1.67,-6.41,-1.74,
2.568,28.12,-6.44,5.11,-1.61,-6.35,-1.68,
2.569,27.92,-6.68,6.02,-1.61,-6.35,-1.68,
2.57,27.92,-6.68,6.02,-1.56,-6.38,-1.62,
2.57,27.92,-6.68,6.02,-1.47,-6.49,-1.55,
2.571,28.04,-6.56,6.79,-1.47,-6.49,-1.55,
2.572,28.04,-6.56,6.79,-1.33,-6.67,-1.51,
2.572,28.15,-6.56,7.59,-1.33,-6.67,-1.51,
2.573,28.15,-6.56,7.59,-1.15,-6.90,-1.48,
2.573,28.18,-6.56,8.50,-1.15,-6.90,-1.48,
2.574,28.18,-6.56,8.50,-0.91,-7.19,-1.45,
2.575,28.34,-6.53,9.20,-0.91,-7.19,-1.45,
2.575,28.34,-6.53,9.20,-0.65,-7.50,-1.43,
2.576,28.44,-6.55,9.76,-0.65,-7.50,-1.43,
2.577,28.24,-6.56,10.13,-0.65,-7.50,-1.43,
2.616,28.24,-6.56,10.13,-0.38,-7.80,-1.41,
2.617,27.78,-6.48,10.20,-0.38,-7.80,-1.41,
2.618,27.78,-6.48,10.20,-0.10,-8.09,-1.38,
2.618,27.78,-6.48,10.20,0.16,-8.36,-1.33,
2.619,27.27,-6.28,9.91,0.16,-8.36,-1.33,
2.62,27.00,-5.98,9.74,0.16,-8.36,-1.33,
2.62,27.00,-5.98,9.74,0.39,-8.61,-1.24,
2.621,27.00,-5.98,9.74,0.58,-8.81,-1.13,
2.621,27.02,-5.80,9.52,0.58,-8.81,-1.13,
2.622,27.02,-5.80,9.52,0.73,-8.94,-1.01,
2.622,27.00,-5.80,9.21,0.73,-8.94,-1.01,
2.623,27.00,-5.80,9.21,0.83,-8.99,-0.88,
2.623,26.73,-5.88,9.15,0.83,-8.99,-0.88,
2.624,26.46,-5.77,9.12,0.83,-8.99,-0.88,
2.624,26.46,-5.77,9.12,0.91,-8.98,-0.73,
2.625,26.14,-5.52,9.20,0.91,-8.98,-0.73,
2.626,26.14,-5.52,9.20,0.97,-8.90,-0.56,
2.626,26.14,-5.52,9.20,1.03,-8.77,-0.39,
2.627,25.66,-5.18,9.39,1.03,-8.77,-0.39,
2.627,25.66,-5.18,9.39,1.10,-8.61,-0.22,
2.628,25.12,-4.82,9.66,1.10,-8.61,-0.22,
2.628,24.54,-4.35,10.12,1.10,-8.61,-0.22,
2.629,24.54,-4.35,10.12,1.20,-8.45,-0.05,
2.629,23.92,-3.88,10.63,1.20,-8.45,-0.05,
2.63,23.92,-3.88,10.63,1.36,-8.30,0.15,
2.631,23.45,-3.45,10.86,1.36,-8.30,0.15,
2.631,23.45,-3.45,10.86,1.58,-8.19,0.36,
2.632,23.18,-3.09,10.86,1.58,-8.19,0.36,
2.632,23.18,-3.09,10.86,1.86,-8.12,0.58,
2.633,23.58,-2.77,10.61,1.86,-8.12,0.58,
2.634,23.58,-2.77,10.61,2.18,-8.09,0.82,
2.634,24.68,-2.55,10.03,2.18,-8.09,0.82,
2.635,24.68,-2.55,10.03,2.54,-8.10,1.04,
2.635,25.97,-2.33,9.13,2.54,-8.10,1.04,
2.636,25.97,-2.33,9.13,2.91,-8.16,1.22,
2.636,27.12,-2.14,7.95,2.91,-8.16,1.22,
2.637,27.12,-2.14,7.95,3.27,-8.24,1.34,
2.637,27.92,-2.00,6.71,3.27,-8.24,1.34,
2.638,27.92,-2.00,6.71,3.60,-8.35,1.43,
2.638,27.92,-2.00,6.71,3.87,-8.48,1.48,
2.639,28.31,-1.86,5.26,3.87,-8.48,1.48,
2.639,28.31,-1.86,5.26,4.09,-8.61,1.53,
2.64,28.25,-1.70,3.91,4.09,-8.61,1.53,
2.653,28.25,-1.70,3.91,4.24,-8.72,1.60,
2.653,27.97,-1.49,2.54,4.24,-8.72,1.60,
2.654,27.97,-1.49,2.54,4.31,-8.80,1.69,
2.654,27.40,-1.32,1.10,4.31,-8.80,1.69,
2.655,27.40,-1.32,1.10,4.31,-8.83,1.81,
2.655,26.81,-1.29,-0.33,4.31,-8.83,1.81,
2.685,26.81,-1.29,-0.33,4.22,-8.80,1.98,
2.686,26.35,-1.30,-1.71,4.22,-8.80,1.98,
2.686,26.35,-1.30,-1.71,4.04,-8.71,2.18,
2.687,26.17,-1.38,-3.05,4.04,-8.71,2.18,
2.687,26.17,-1.38,-3.05,3.78,-8.54,2.39,
2.688,26.18,-1.68,-4.30,3.78,-8.54,2.39,
2.688,26.18,-1.68,-4.30,3.43,-8.31,2.61,
2.688,26.29,-2.04,-5.42,3.43,-8.31,2.61,
2.689,26.29,-2.04,-5.42,3.01,-8.04,2.84,
2.689,26.61,-2.39,-6.42,3.01,-8.04,2.84,
2.689,26.61,-2.39,-6.42,2.52,-7.75,3.08,
2.69,26.99,-2.65,-7.26,2.52,-7.75,3.08,
2.69,26.99,-2.65,-7.26,1.97,-7.46,3.30,
2.69,27.38,-2.88,-7.82,1.97,-7.46,3.30,
2.698,27.38,-2.88,-7.82,1.38,-7.19,3.51,
2.699,27.97,-3.08,-7.98,1.38,-7.19,3.51,
2.699,28.83,-3.39,-7.69,1.38,-7.19,3.51,
2.7,28.83,-3.39,-7.69,0.77,-6.96,3.70,
2.722,28.83,-3.39,-7.69,0.16,-6.77,3.86,
2.723,29.86,-3.73,-7.13,0.16,-6.77,3.86,
2.723,31.30,-4.05,-6.19,0.16,-6.77,3.86,
2.724,31.30,-4.05,-6.19,-0.43,-6.62,3.97,
2.724,31.30,-4.05,-6.19,-1.00,-6.50,4.01,
2.724,32.87,-4.14,-4.93,-1.00,-6.50,4.01,
2.725,34.07,-3.98,-3.33,-1.00,-6.50,4.01,
2.725,34.07,-3.98,-3.33,-1.51,-6.41,3.98,
2.726,34.60,-3.82,-1.58,-1.51,-6.41,3.98,
2.726,34.60,-3.82,-1.58,-1.97,-6.32,3.87,
2.726,34.73,-3.77,0.11,-1.97,-6.32,3.87,
2.727,34.73,-3.77,0.11,-2.36,-6.24,3.72,
2.731,34.80,-3.81,1.70,-2.36,-6.24,3.72,
2.731,34.80,-3.81,1.70,-2.70,-6.18,3.54,
2.745,34.93,-3.98,3.22,-2.70,-6.18,3.54,
2.746,34.93,-3.98,3.22,-2.98,-6.10,3.34,
2.747,34.94,-4.30,4.52,-2.98,-6.10,3.34,
2.747,34.94,-4.30,4.52,-3.24,-5.99,3.10,
2.748,34.50,-4.76,5.79,-3.24,-5.99,3.10,
2.748,34.50,-4.76,5.79,-3.49,-5.85,2.83,
2.768,33.57,-5.39,6.89,-3.49,-5.85,2.83,
2.769,33.57,-5.39,6.89,-3.72,-5.66,2.54,
2.77,32.39,-6.09,7.75,-3.72,-5.66,2.54,
2.77,32.39,-6.09,7.75,-3.96,-5.40,2.25,
2.771,32.39,-6.09,7.75,-4.23,-5.08,1.97,
2.771,31.06,-6.96,8.55,-4.23,-5.08,1.97,
2.771,31.06,-6.96,8.55,-4.52,-4.69,1.71,
2.772,29.42,-8.14,9.29,-4.52,-4.69,1.71,
2.772,27.29,-9.56,9.85,-4.52,-4.69,1.71,
2.772,27.29,-9.56,9.85,-4.83,-4.25,1.46,
2.775,27.29,-9.56,9.85,-5.15,-3.74,1.24,
2.776,24.99,-11.08,10.32,-5.15,-3.74,1.24,
2.78,22.92,-12.61,11.00,-5.15,-3.74,1.24,
2.808,22.92,-12.61,11.00,-5.50,-3.19,1.08,
2.809,22.92,-12.61,11.00,-5.85,-2.65,0.96,
2.809,21.45,-14.17,11.88,-5.85,-2.65,0.96,
2.809,21.45,-14.17,11.88,-6.14,-2.24,0.84,
2.81,20.65,-15.59,13.30,-6.14,-2.24,0.84,
2.81,20.28,-16.71,15.66,-6.14,-2.24,0.84,
2.811,20.28,-16.71,15.66,-6.34,-1.98,0.70,
2.811,19.81,-17.37,19.61,-6.34,-1.98,0.70,
2.812,19.81,-17.37,19.61,-6.38,-1.90,0.51,
2.812,19.81,-17.37,19.61,-6.17,-2.05,0.29,
2.813,18.45,-17.13,25.30,-6.17,-2.05,0.29,
2.813,16.11,-16.24,31.29,-6.17,-2.05,0.29,
2.814,16.11,-16.24,31.29,-5.59,-2.40,0.06,
2.814,12.96,-15.56,35.27,-5.59,-2.40,0.06,
2.815,12.96,-15.56,35.27,-4.63,-2.93,-0.10,
2.82,10.01,-15.31,35.15,-4.63,-2.93,-0.10,
2.821,10.01,-15.31,35.15,-3.34,-3.61,-0.14,
2.824,10.01,-15.31,35.15,-1.79,-4.45,-0.04,
2.825,7.21,-15.12,35.11,-1.79,-4.45,-0.04,
2.829,7.21,-15.12,35.11,-0.10,-5.36,0.17,
2.83,4.52,-14.73,35.15,-0.10,-5.36,0.17,
2.841,4.52,-14.73,35.15,1.60,-6.22,0.48,
2.842,2.57,-14.22,35.27,1.60,-6.22,0.48,
2.842,1.90,-13.99,35.47,1.60,-6.22,0.48,
2.843,1.90,-13.99,35.47,3.22,-6.92,0.86,
2.844,1.90,-13.99,35.47,4.66,-7.40,1.25,
2.845,1.61,-13.82,35.73,4.66,-7.40,1.25,
2.848,1.61,-13.82,35.73,5.85,-7.63,1.61,
2.849,1.18,-13.36,32.47,5.85,-7.63,1.61,
2.866,0.90,-12.68,27.82,5.85,-7.63,1.61,
2.867,0.90,-12.68,27.82,6.76,-7.61,1.96,
2.868,0.90,-12.68,27.82,7.34,-7.39,2.31,
2.868,0.85,-12.04,23.18,7.34,-7.39,2.31,
2.868,0.85,-12.04,23.18,7.64,-7.03,2.65,
2.869,1.11,-11.03,18.96,7.64,-7.03,2.65,
2.869,1.38,-9.35,15.69,7.64,-7.03,2.65,
2.869,1.38,-9.35,15.69,7.67,-6.58,2.98,
2.873,1.51,-7.72,13.79,7.67,-6.58,2.98,
2.873,1.51,-7.72,13.79,7.50,-6.09,3.29,
2.878,1.02,-6.57,13.77,7.50,-6.09,3.29,
2.878,1.02,-6.57,13.77,7.23,-5.58,3.58,
2.883,1.02,-6.57,13.77,6.95,-5.05,3.92,
2.883,0.40,-4.42,12.28,6.95,-5.05,3.92,
2.887,0.84,-2.07,9.39,6.95,-5.05,3.92,
2.888,0.84,-2.07,9.39,6.57,-4.65,4.30,
2.893,2.05,-0.02,7.33,6.57,-4.65,4.30,
2.893,2.05,-0.02,7.33,6.03,-4.24,4.64,
2.897,2.05,-0.02,7.33,5.38,-3.77,4.92,
2.897,4.73,2.21,6.87,5.38,-3.77,4.92,
2.908,4.73,2.21,6.87,4.66,-3.32,5.09,
2.909,7.84,4.36,7.32,4.66,-3.32,5.09,
2.91,7.84,4.36,7.32,3.93,-2.86,5.13,
2.91,10.64,6.32,8.06,3.93,-2.86,5.13,
2.912,10.64,6.32,8.06,3.24,-2.43,5.02,
2.913,12.48,8.19,9.09,3.24,-2.43,5.02,
2.917,13.29,10.26,10.54,3.24,-2.43,5.02,
2.918,13.29,10.26,10.54,2.60,-2.06,4.80,
2.944,13.54,12.35,12.22,2.60,-2.06,4.80,
2.946,13.54,12.35,12.22,2.04,-1.77,4.53,
2.946,13.35,14.27,13.92,2.04,-1.77,4.53,
2.947,13.35,14.27,13.92,1.60,-1.55,4.21,
2.947,13.35,14.27,13.92,1.28,-1.41,3.86,
2.948,13.05,15.95,15.10,1.28,-1.41,3.86,
2.948,13.11,17.25,15.83,1.28,-1.41,3.86,
2.949,13.11,17.25,15.83,1.06,-1.32,3.51,
2.949,13.14,18.13,15.93,1.06,-1.32,3.51,
2.95,13.14,18.13,15.93,0.91,-1.27,3.13,
2.951,12.65,18.47,15.47,0.91,-1.27,3.13,
2.952,12.65,18.47,15.47,0.77,-1.22,2.73,
2.953,12.65,18.47,15.47,0.61,-1.14,2.31,
2.953,11.58,18.45,14.43,0.61,-1.14,2.31,
2.98,11.58,18.45,14.43,0.38,-1.05,1.92,
2.981,10.16,18.17,13.05,0.38,-1.05,1.92,
2.982,8.61,17.65,11.83,0.38,-1.05,1.92,
2.982,8.61,17.65,11.83,0.07,-0.92,1.57,
2.983,8.61,17.65,11.83,-0.34,-0.76,1.27,
2.984,6.99,16.85,11.31,-0.34,-0.76,1.27,
2.985,6.99,16.85,11.31,-0.80,-0.55,1.03,
2.986,5.38,15.81,11.65,-0.80,-0.55,1.03,
2.987,5.38,15.81,11.65,-1.26,-0.32,0.86,
2.987,4.03,14.80,12.71,-1.26,-0.32,0.86,
2.988,4.03,14.80,12.71,-1.68,-0.08,0.74,
2.988,3.08,14.01,14.27,-1.68,-0.08,0.74,
2.988,3.08,14.01,14.27,-2.02,0.17,0.66,
2.989,2.86,13.58,16.45,-2.02,0.17,0.66,
2.991,3.37,13.37,19.02,-2.02,0.17,0.66,
2.992,3.37,13.37,19.02,-2.24,0.39,0.61,
3.001,3.37,13.37,19.02,-2.31,0.55,0.54,
3.001,4.07,13.30,21.43,-2.31,0.55,0.54,
3.002,4.90,13.25,23.39,-2.31,0.55,0.54,
3.003,4.90,13.25,23.39,-2.22,0.68,0.44,
3.005,4.90,13.25,23.39,-2.01,0.77,0.32,
3.005,5.98,13.36,24.73,-2.01,0.77,0.32,
3.032,5.98,13.36,24.73,-1.70,0.84,0.17,
3.032,7.41,13.74,25.51,-1.70,0.84,0.17,
3.033,7.41,13.74,25.51,-1.32,0.90,-0.02,
3.034,8.69,14.08,25.54,-1.32,0.90,-0.02,
3.035,8.69,14.08,25.54,-0.91,0.99,-0.26,
3.036,9.35,14.07,24.79,-0.91,0.99,-0.26,
3.037,9.30,13.64,23.30,-0.91,0.99,-0.26,
3.072,9.30,13.64,23.30,-0.52,1.10,-0.52,
3.073,9.30,13.64,23.30,-0.17,1.24,-0.76,
3.073,8.72,13.07,21.53,-0.17,1.24,-0.76,
3.074,8.72,13.07,21.53,0.11,1.38,-0.97,
3.074,8.24,12.35,20.13,0.11,1.38,-0.97,
3.075,8.24,12.35,20.13,0.36,1.51,-1.14,
3.075,8.08,11.64,19.04,0.36,1.51,-1.14,
3.076,8.08,11.64,19.04,0.58,1.62,-1.30,
3.076,8.20,10.64,17.65,0.58,1.62,-1.30,
3.076,8.31,9.64,16.12,0.58,1.62,-1.30,
3.077,8.31,9.64,16.12,0.78,1.70,-1.45,
3.078,8.12,8.82,14.77,0.78,1.70,-1.45,
3.078,8.12,8.82,14.77,0.94,1.77,-1.59,
3.079,7.52,8.22,13.57,0.94,1.77,-1.59,
3.079,7.52,8.22,13.57,1.07,1.85,-1.72,
3.08,6.91,7.78,12.69,1.07,1.85,-1.72,
3.08,6.91,7.78,12.69,1.16,1.92,-1.82,
3.08,6.91,7.78,12.69,1.22,2.01,-1.87,
3.081,6.67,7.49,12.11,1.22,2.01,-1.87,
3.081,6.67,7.49,12.11,1.28,2.11,-1.90,
3.082,6.88,7.32,11.67,1.28,2.11,-1.90,
3.083,6.88,7.32,11.67,1.34,2.23,-1.92,
3.083,7.53,7.02,11.29,1.34,2.23,-1.92,
3.084,7.53,7.02,11.29,1.41,2.35,-1.95,
3.085,8.13,6.56,10.99,1.41,2.35,-1.95,
3.092,8.13,6.56,10.99,1.49,2.48,-1.98,
3.092,8.28,6.04,10.51,1.49,2.48,-1.98,
3.093,8.28,6.04,10.51,1.56,2.65,-2.02,
3.093,8.43,5.61,9.93,1.56,2.65,-2.02,
3.097,8.43,5.61,9.93,1.60,2.84,-2.03,
3.097,8.96,5.21,9.24,1.60,2.84,-2.03,
3.103,9.56,4.59,8.52,1.60,2.84,-2.03,
3.103,9.56,4.59,8.52,1.62,3.01,-2.05,
3.108,9.56,4.59,8.52,1.62,3.15,-2.09,
3.108,10.35,3.73,7.91,1.62,3.15,-2.09,
3.111,10.35,3.73,7.91,1.60,3.25,-2.14,
3.112,11.34,2.86,7.27,1.60,3.25,-2.14,
3.116,11.34,2.86,7.27,1.55,3.30,-2.22,
3.117,12.13,2.07,6.57,1.55,3.30,-2.22,
3.126,12.13,2.07,6.57,1.48,3.31,-2.32,
3.127,12.51,1.33,5.93,1.48,3.31,-2.32,
3.127,12.51,1.33,5.93,1.39,3.30,-2.42,
3.128,12.69,0.63,5.61,1.39,3.30,-2.42,
3.131,12.69,0.63,5.61,1.28,3.25,-2.53,
3.132,12.51,-0.03,5.95,1.28,3.25,-2.53,
3.214,12.51,-0.03,5.95,1.18,3.20,-2.62,
3.215,12.01,-0.42,6.76,1.18,3.20,-2.62,
3.215,12.01,-0.42,6.76,1.11,3.16,-2.67,
3.215,11.43,-0.83,7.77,1.11,3.16,-2.67,
3.216,11.43,-0.83,7.77,1.07,3.18,-2.69,
3.216,10.84,-1.15,8.63,1.07,3.18,-2.69,
3.216,10.84,-1.15,8.63,1.04,3.27,-2.67,
3.217,10.41,-1.14,9.22,1.04,3.27,-2.67,
3.217,10.41,-1.14,9.22,1.04,3.43,-2.61,
3.217,10.55,-0.99,9.71,1.04,3.43,-2.61,
3.218,11.71,-0.86,9.89,1.04,3.43,-2.61,
3.218,11.71,-0.86,9.89,1.06,3.64,-2.54,
3.218,13.15,-0.83,9.60,1.06,3.64,-2.54,
3.219,13.15,-0.83,9.60,1.10,3.87,-2.50,
3.219,14.00,-0.93,8.86,1.10,3.87,-2.50,
3.219,14.00,-0.93,8.86,1.15,4.06,-2.50,
3.219,14.00,-0.93,8.86,1.18,4.21,-2.54,
3.22,14.45,-1.00,8.00,1.18,4.21,-2.54,
3.22,14.82,-1.17,7.30,1.18,4.21,-2.54,
3.22,14.82,-1.17,7.30,1.18,4.30,-2.56,
3.221,14.82,-1.17,7.30,1.15,4.36,-2.59,
3.221,15.04,-1.35,6.62,1.15,4.36,-2.59,
3.221,15.20,-1.62,5.98,1.15,4.36,-2.59,
3.222,15.20,-1.62,5.98,1.10,4.40,-2.61,
3.222,15.20,-1.62,5.98,1.01,4.45,-2.62,
3.222,15.46,-1.97,5.62,1.01,4.45,-2.62,
3.223,15.59,-2.34,5.34,1.01,4.45,-2.62,
3.223,15.59,-2.34,5.34,0.89,4.51,-2.62,
3.223,15.59,-2.34,5.34,0.75,4.61,-2.61,
3.224,15.57,-2.69,5.33,0.75,4.61,-2.61,
3.224,15.55,-2.95,5.39,0.75,4.61,-2.61,
3.225,15.55,-2.95,5.39,0.59,4.73,-2.57,
3.225,15.49,-3.22,5.32,0.59,4.73,-2.57,
3.225,15.49,-3.22,5.32,0.42,4.89,-2.52,
3.225,15.44,-3.56,5.25,0.42,4.89,-2.52,
3.226,15.44,-3.56,5.25,0.25,5.07,-2.44,
3.226,15.58,-3.81,5.29,0.25,5.07,-2.44,
3.226,15.58,-3.81,5.29,0.07,5.28,-2.33,
3.229,16.18,-3.91,5.42,0.07,5.28,-2.33,
3.229,16.18,-3.91,5.42,-0.10,5.50,-2.21,
3.234,16.94,-4.01,5.51,-0.10,5.50,-2.21,
3.234,16.94,-4.01,5.51,-0.24,5.72,-2.07,
3.241,17.72,-4.15,5.63,-0.24,5.72,-2.07,
3.242,17.72,-4.15,5.63,-0.37,5.93,-1.94,
3.244,17.72,-4.15,5.63,-0.47,6.12,-1.83,
3.244,18.38,-4.35,5.85,-0.47,6.12,-1.83,
3.248,18.38,-4.35,5.85,-0.53,6.27,-1.72,
3.248,18.71,-4.51,6.21,-0.53,6.27,-1.72,
3.269,18.71,-4.51,6.21,-0.56,6.41,-1.60,
3.27,19.12,-4.70,6.32,-0.56,6.41,-1.60,
3.27,19.12,-4.70,6.32,-0.56,6.52,-1.48,
3.271,19.69,-4.90,6.16,-0.56,6.52,-1.48,
3.271,19.69,-4.90,6.16,-0.56,6.62,-1.35,
3.272,20.55,-4.93,5.74,-0.56,6.62,-1.35,
3.272,20.55,-4.93,5.74,-0.56,6.72,-1.24,
3.3,21.57,-4.91,5.18,-0.56,6.72,-1.24,
3.301,22.63,-4.91,4.59,-0.56,6.72,-1.24,
3.302,22.63,-4.91,4.59,-0.58,6.81,-1.15,
3.302,22.63,-4.91,4.59,-0.61,6.89,-1.10,
3.303,23.54,-4.85,4.00,-0.61,6.89,-1.10,
3.303,23.54,-4.85,4.00,-0.65,6.95,-1.08,
3.304,23.91,-4.87,3.48,-0.65,6.95,-1.08,
3.305,23.91,-4.87,3.48,-0.68,6.98,-1.07,
3.305,23.82,-4.92,3.00,-0.68,6.98,-1.07,
3.306,23.36,-4.99,2.50,-0.68,6.98,-1.07,
3.306,23.36,-4.99,2.50,-0.73,7.00,-1.05,
3.307,23.36,-4.99,2.50,-0.79,7.02,-1.00,
3.307,22.68,-5.18,2.06,-0.79,7.02,-1.00,
3.308,22.68,-5.18,2.06,-0.87,7.05,-0.93,
3.308,21.99,-5.34,1.69,-0.87,7.05,-0.93,
3.309,21.99,-5.34,1.69,-0.95,7.10,-0.82,
3.309,21.36,-5.45,1.43,-0.95,7.10,-0.82,
3.314,21.36,-5.45,1.43,-1.04,7.14,-0.68,
3.315,20.80,-5.52,1.34,-1.04,7.14,-0.68,
3.317,20.80,-5.52,1.34,-1.13,7.18,-0.52,
3.318,20.33,-5.50,1.40,-1.13,7.18,-0.52,
3.322,20.33,-5.50,1.40,-1.21,7.23,-0.33,
3.323,20.04,-5.51,1.48,-1.21,7.23,-0.33,
3.327,19.74,-5.56,1.63,-1.21,7.23,-0.33,
3.327,19.74,-5.56,1.63,-1.28,7.27,-0.13,
3.331,19.50,-5.59,1.90,-1.28,7.27,-0.13,
3.332,19.50,-5.59,1.90,-1.34,7.33,0.09,
3.342,19.40,-5.62,2.29,-1.34,7.33,0.09,
3.342,19.40,-5.62,2.29,-1.38,7.38,0.32,
3.343,19.40,-5.62,2.29,-1.40,7.44,0.56,
3.343,19.31,-5.57,2.84,-1.40,7.44,0.56,
3.349,19.31,-5.57,2.84,-1.40,7.51,0.82,
3.35,19.39,-5.57,3.40,-1.40,7.51,0.82,
3.35,19.39,-5.57,3.40,-1.37,7.58,1.08,
3.351,19.91,-5.49,3.98,-1.37,7.58,1.08,
3.429,19.91,-5.49,3.98,-1.33,7.65,1.34,
3.431,20.98,-5.39,4.57,-1.33,7.65,1.34,
3.432,22.96,-5.11,5.32,-1.33,7.65,1.34,
3.433,22.96,-5.11,5.32,-1.24,7.70,1.57,
3.435,22.96,-5.11,5.32,-1.12,7.73,1.74,
3.436,25.63,-4.73,6.04,-1.12,7.73,1.74,
3.437,28.24,-4.36,6.59,-1.12,7.73,1.74,
3.439,28.24,-4.36,6.59,-0.94,7.75,1.81,
3.44,30.03,-4.09,6.86,-0.94,7.75,1.81,
3.442,30.03,-4.09,6.86,-0.72,7.74,1.77,
3.443,30.67,-4.02,6.85,-0.72,7.74,1.77,
3.444,30.67,-4.02,6.85,-0.47,7.71,1.66,
3.445,30.30,-4.09,6.73,-0.47,7.71,1.66,
3.445,30.30,-4.09,6.73,-0.20,7.67,1.51,
3.446,30.30,-4.09,6.73,0.07,7.64,1.40,
3.446,29.32,-4.14,6.55,0.07,7.64,1.40,
3.446,29.32,-4.14,6.55,0.32,7.63,1.33,
3.447,28.30,-4.33,6.47,0.32,7.63,1.33,
3.447,28.30,-4.33,6.47,0.57,7.63,1.32,
3.448,27.48,-4.72,6.50,0.57,7.63,1.32,
3.448,26.93,-5.28,6.58,0.57,7.63,1.32,
3.449,26.93,-5.28,6.58,0.81,7.66,1.36,
3.449,26.93,-5.28,6.58,1.06,7.71,1.43,
3.45,26.52,-5.74,6.56,1.06,7.71,1.43,
3.45,26.20,-6.19,6.35,1.06,7.71,1.43,
3.451,26.20,-6.19,6.35,1.30,7.77,1.54,
3.451,25.91,-6.69,6.00,1.30,7.77,1.54,
3.452,25.91,-6.69,6.00,1.53,7.85,1.67,
3.452,25.72,-7.21,5.56,1.53,7.85,1.67,
3.453,25.72,-7.21,5.56,1.74,7.93,1.82,
3.453,25.41,-7.77,5.12,1.74,7.93,1.82,
3.454,25.41,-7.77,5.12,1.93,8.02,1.98,
3.454,25.00,-8.27,4.65,1.93,8.02,1.98,
3.455,25.00,-8.27,4.65,2.09,8.11,2.16,
3.455,25.00,-8.27,4.65,2.23,8.20,2.36,
3.455,24.43,-8.77,4.24,2.23,8.20,2.36,
3.456,24.31,-9.17,3.75,2.23,8.20,2.36,
3.457,24.31,-9.17,3.75,2.35,8.29,2.59,
3.457,25.43,-9.32,3.23,2.35,8.29,2.59,
3.458,25.43,-9.32,3.23,2.43,8.35,2.82,
3.458,25.43,-9.32,3.23,2.49,8.42,3.03,
3.458,27.72,-9.35,2.90,2.49,8.42,3.03,
3.459,30.55,-9.34,2.80,2.49,8.42,3.03,
3.459,30.55,-9.34,2.80,2.53,8.47,3.15,
3.469,30.55,-9.34,2.80,2.57,8.48,3.14,
3.47,33.35,-9.19,2.80,2.57,8.48,3.14,
3.47,35.56,-8.89,2.78,2.57,8.48,3.14,
3.471,35.56,-8.89,2.78,2.64,8.41,2.99,
3.473,36.62,-8.62,2.59,2.64,8.41,2.99,
3.474,36.62,-8.62,2.59,2.76,8.30,2.72,
3.478,36.46,-8.36,2.08,2.76,8.30,2.72,
3.479,36.46,-8.36,2.08,2.92,8.15,2.36,
3.483,36.46,-8.36,2.08,3.09,7.97,1.98,
3.483,35.35,-8.29,1.51,3.09,7.97,1.98,
3.495,35.35,-8.29,1.51,3.27,7.76,1.63,
3.495,33.64,-8.42,1.07,3.27,7.76,1.63,
3.496,31.72,-8.55,0.70,3.27,7.76,1.63,
3.497,31.72,-8.55,0.70,3.43,7.54,1.33,
3.497,29.94,-8.71,0.18,3.43,7.54,1.33,
3.498,29.94,-8.71,0.18,3.58,7.33,1.09,
3.524,29.94,-8.71,0.18,3.70,7.16,0.90,
3.525,28.30,-9.00,-0.52,3.70,7.16,0.90,
3.525,26.85,-9.36,-1.25,3.70,7.16,0.90,
3.525,26.85,-9.36,-1.25,3.77,7.04,0.78,
3.526,26.85,-9.36,-1.25,3.79,6.96,0.71,
3.556,25.64,-9.72,-1.93,3.79,6.96,0.71,
3.556,25.64,-9.72,-1.93,3.74,6.96,0.67,
3.557,24.74,-9.88,-2.44,3.74,6.96,0.67,
3.557,24.09,-10.03,-3.00,3.74,6.96,0.67,
3.558,24.09,-10.03,-3.00,3.65,7.03,0.66,
3.558,23.58,-10.11,-3.54,3.65,7.03,0.66,
3.558,23.58,-10.11,-3.54,3.50,7.15,0.66,
3.559,23.14,-10.03,-4.03,3.50,7.15,0.66,
3.559,23.14,-10.03,-4.03,3.32,7.30,0.68,
3.56,22.91,-9.73,-4.37,3.32,7.30,0.68,
3.56,22.91,-9.73,-4.37,3.10,7.46,0.72,
3.56,22.96,-9.24,-4.49,3.10,7.46,0.72,
3.561,22.96,-9.24,-4.49,2.89,7.60,0.76,
3.561,23.12,-8.66,-4.44,2.89,7.60,0.76,
3.561,23.12,-8.66,-4.44,2.70,7.69,0.78,
3.562,23.20,-8.01,-4.28,2.70,7.69,0.78,
3.562,23.20,-8.01,-4.28,2.56,7.70,0.77,
3.562,23.20,-8.01,-4.28,2.49,7.65,0.74,
3.563,23.25,-7.34,-4.08,2.49,7.65,0.74,
3.563,23.25,-7.34,-4.08,2.50,7.51,0.68,
3.563,23.34,-6.76,-4.13,2.50,7.51,0.68,
3.568,23.34,-6.76,-4.13,2.57,7.28,0.59,
3.568,23.47,-6.30,-4.69,2.57,7.28,0.59,
3.571,23.47,-6.30,-4.69,2.67,6.96,0.46,
3.571,23.53,-5.80,-5.61,2.67,6.96,0.46,
3.575,23.53,-5.80,-5.61,2.78,6.57,0.28,
3.576,23.34,-5.49,-6.90,2.78,6.57,0.28,
3.58,22.80,-5.30,-8.27,2.78,6.57,0.28,
3.58,22.80,-5.30,-8.27,2.85,6.15,0.07,
3.585,22.80,-5.30,-8.27,2.86,5.74,-0.17,
3.586,21.96,-5.18,-9.65,2.86,5.74,-0.17,
3.593,21.96,-5.18,-9.65,2.79,5.37,-0.40,
3.594,20.83,-5.18,-11.08,2.79,5.37,-0.40,
3.594,20.83,-5.18,-11.08,2.62,5.07,-0.61,
3.595,19.39,-5.28,-12.41,2.62,5.07,-0.61,
3.599,19.39,-5.28,-12.41,2.35,4.87,-0.78,
3.6,17.62,-5.45,-13.59,2.35,4.87,-0.78,
3.619,17.62,-5.45,-13.59,1.97,4.77,-0.89,
3.62,15.59,-5.56,-14.69,1.97,4.77,-0.89,
3.62,13.57,-5.63,-15.58,1.97,4.77,-0.89,
3.621,13.57,-5.63,-15.58,1.52,4.76,-0.93,
3.621,11.72,-5.72,-15.99,1.52,4.76,-0.93,
3.622,11.72,-5.72,-15.99,1.00,4.81,-0.90,
3.622,10.21,-5.73,-15.73,1.00,4.81,-0.90,
3.623,10.21,-5.73,-15.73,0.44,4.89,-0.80,
3.625,10.21,-5.73,-15.73,-0.09,4.99,-0.65,
3.625,9.23,-5.63,-14.77,-0.09,4.99,-0.65,
3.629,8.69,-5.47,-13.32,-0.09,4.99,-0.65,
3.63,8.69,-5.47,-13.32,-0.56,5.08,-0.48,
3.662,8.69,-5.47,-13.32,-0.91,5.13,-0.29,
3.662,8.62,-5.24,-11.64,-0.91,5.13,-0.29,
3.663,8.62,-5.24,-11.64,-1.13,5.12,-0.12,
3.664,8.90,-4.93,-10.10,-1.13,5.12,-0.12,
3.664,8.90,-4.93,-10.10,-1.22,5.05,0.02,
3.665,9.57,-4.54,-8.83,-1.22,5.05,0.02,
3.665,9.57,-4.54,-8.83,-1.19,4.91,0.14,
3.666,10.86,-4.27,-8.07,-1.19,4.91,0.14,
3.666,12.53,-4.12,-7.73,-1.19,4.91,0.14,
3.667,12.53,-4.12,-7.73,-1.07,4.70,0.19,
3.667,14.16,-4.35,-7.87,-1.07,4.70,0.19,
3.668,14.16,-4.35,-7.87,-0.86,4.46,0.18,
3.668,15.62,-5.10,-8.35,-0.86,4.46,0.18,
3.669,15.62,-5.10,-8.35,-0.61,4.19,0.11,
3.669,16.71,-5.94,-9.30,-0.61,4.19,0.11,
3.67,16.71,-5.94,-9.30,-0.33,3.91,0.03,
3.674,16.71,-5.94,-9.30,-0.05,3.62,-0.03,
3.675,16.43,-6.60,-11.14,-0.05,3.62,-0.03,
3.677,16.43,-6.60,-11.14,0.17,3.34,0.01,
3.678,15.97,-7.14,-13.69,0.17,3.34,0.01,
3.683,15.97,-7.14,-13.69,0.26,3.06,0.26,
3.684,16.75,-7.67,-16.30,0.26,3.06,0.26,
3.696,19.37,-7.86,-18.05,0.26,3.06,0.26,
3.697,19.37,-7.86,-18.05,0.18,2.92,0.67,
3.697,22.55,-8.04,-18.68,0.18,2.92,0.67,
3.698,22.55,-8.04,-18.68,0.05,3.07,1.03,
3.704,22.55,-8.04,-18.68,-0.05,3.45,1.17,
3.705,22.55,-8.04,-18.68,-0.12,3.86,1.06,
3.706,24.28,-7.57,-19.26,-0.12,3.86,1.06,
3.707,22.76,-5.96,-19.92,-0.12,3.86,1.06,
3.707,22.76,-5.96,-19.92,-0.20,4.14,0.83,
3.708,18.38,-3.36,-19.87,-0.20,4.14,0.83,
3.712,13.62,-0.92,-18.49,-0.20,4.14,0.83,
3.714,13.62,-0.92,-18.49,-0.23,4.19,0.68,
3.717,10.32,0.42,-16.04,-0.23,4.19,0.68,
3.718,10.32,0.42,-16.04,-0.15,4.00,0.63,
3.723,10.32,0.42,-16.04,0.09,3.53,0.63,
3.725,8.50,0.71,-13.42,0.09,3.53,0.63,
3.728,8.50,0.71,-13.42,0.50,2.87,0.65,
3.728,7.27,0.61,-11.75,0.50,2.87,0.65,
3.731,5.82,0.64,-11.37,0.50,2.87,0.65,
3.732,5.82,0.64,-11.37,1.00,2.14,0.66,
3.752,4.03,0.77,-12.01,1.00,2.14,0.66,
3.753,4.03,0.77,-12.01,1.51,1.48,0.66,
3.753,4.03,0.77,-12.01,1.93,0.92,0.70,
3.754,2.66,1.10,-12.97,1.93,0.92,0.70,
3.754,2.66,1.10,-12.97,2.22,0.50,0.77,
3.754,1.82,1.09,-14.16,2.22,0.50,0.77,
3.755,1.82,1.09,-14.16,2.41,0.29,0.88,
3.755,1.47,0.41,-15.60,2.41,0.29,0.88,
3.756,1.47,0.41,-15.60,2.48,0.24,1.00,
3.793,1.46,-0.38,-16.99,2.48,0.24,1.00,
3.793,1.53,-0.63,-17.98,2.48,0.24,1.00,
3.794,1.53,-0.63,-17.98,2.46,0.22,1.13,
3.794,1.53,-0.63,-17.98,2.37,0.21,1.28,
3.795,1.47,-0.21,-18.91,2.37,0.21,1.28,
3.796,1.49,0.52,-20.02,2.37,0.21,1.28,
3.796,1.49,0.52,-20.02,2.24,0.18,1.44,
3.796,1.49,0.52,-20.02,2.05,0.10,1.64,
3.797,2.20,1.33,-21.02,2.05,0.10,1.64,
3.797,2.20,1.33,-21.02,1.79,-0.03,1.83,
3.797,3.60,2.26,-21.57,1.79,-0.03,1.83,
3.798,5.55,3.36,-21.36,1.79,-0.03,1.83,
3.798,5.55,3.36,-21.36,1.49,-0.22,1.98,
3.798,7.56,4.58,-20.58,1.49,-0.22,1.98,
3.799,7.56,4.58,-20.58,1.18,-0.42,2.07,
3.799,9.19,5.77,-19.37,1.18,-0.42,2.07,
3.8,9.19,5.77,-19.37,0.89,-0.60,2.08,
3.8,10.54,6.94,-18.02,0.89,-0.60,2.08,
3.801,10.54,6.94,-18.02,0.63,-0.71,2.05,
3.806,11.85,8.05,-16.77,0.63,-0.71,2.05,
3.807,11.85,8.05,-16.77,0.43,-0.79,1.98,
3.814,11.85,8.05,-16.77,0.28,-0.84,1.88,
3.815,13.11,9.08,-15.80,0.28,-0.84,1.88,
3.816,14.08,9.89,-15.02,0.28,-0.84,1.88,
3.816,14.08,9.89,-15.02,0.18,-0.89,1.73,
3.819,14.68,10.41,-14.34,0.18,-0.89,1.73,
3.819,14.68,10.41,-14.34,0.13,-0.97,1.54,
3.836,14.80,10.67,-13.66,0.13,-0.97,1.54,
3.837,14.80,10.67,-13.66,0.11,-1.07,1.32,
3.837,14.30,10.81,-12.85,0.11,-1.07,1.32,
3.838,14.30,10.81,-12.85,0.14,-1.20,1.10,
3.838,14.30,10.81,-12.85,0.21,-1.37,0.89,
3.838,13.34,10.82,-12.11,0.21,-1.37,0.89,
3.84,13.34,10.82,-12.11,0.33,-1.56,0.72,
3.841,12.21,10.72,-11.56,0.33,-1.56,0.72,
3.843,12.21,10.72,-11.56,0.48,-1.80,0.61,
3.844,11.14,10.48,-11.24,0.48,-1.80,0.61,
3.848,11.14,10.48,-11.24,0.64,-2.06,0.53,
3.848,10.38,10.22,-11.17,0.64,-2.06,0.53,
3.855,10.38,10.22,-11.17,0.81,-2.35,0.49,
3.856,10.05,9.82,-11.35,0.81,-2.35,0.49,
3.858,9.95,9.35,-11.61,0.81,-2.35,0.49,
3.859,9.95,9.35,-11.61,0.97,-2.66,0.44,
3.863,10.12,8.85,-11.81,0.97,-2.66,0.44,
3.864,10.12,8.85,-11.81,1.10,-2.98,0.41,
3.868,10.34,8.28,-12.02,1.10,-2.98,0.41,
3.868,10.34,8.28,-12.02,1.21,-3.27,0.36,
3.873,10.34,8.28,-12.02,1.28,-3.54,0.30,
3.874,10.67,7.62,-12.21,1.28,-3.54,0.30,
3.878,10.92,6.97,-12.28,1.28,-3.54,0.30,
3.878,10.92,6.97,-12.28,1.31,-3.79,0.23,
3.883,11.05,6.35,-12.22,1.31,-3.79,0.23,
3.883,11.05,6.35,-12.22,1.30,-3.99,0.16,
3.893,11.14,5.72,-12.04,1.30,-3.99,0.16,
3.894,11.14,5.72,-12.04,1.26,-4.14,0.10,
3.894,11.04,5.05,-11.87,1.26,-4.14,0.10,
3.895,11.04,5.05,-11.87,1.18,-4.27,0.03,
3.897,11.04,5.05,-11.87,1.09,-4.38,-0.02,
3.898,10.90,4.44,-11.81,1.09,-4.38,-0.02,
3.902,10.78,3.96,-11.87,1.09,-4.38,-0.02,
3.903,10.78,3.96,-11.87,0.96,-4.48,-0.05,
3.919,10.79,3.51,-11.88,0.96,-4.48,-0.05,
3.92,10.79,3.51,-11.88,0.79,-4.57,-0.07,
3.921,10.89,3.03,-11.79,0.79,-4.57,-0.07,
3.921,10.89,3.03,-11.79,0.60,-4.67,-0.09,
3.922,11.17,2.59,-11.47,0.60,-4.67,-0.09,
3.922,11.17,2.59,-11.47,0.37,-4.78,-0.09,
3.923,11.17,2.59,-11.47,0.13,-4.89,-0.10,
3.923,11.64,2.17,-10.94,0.13,-4.89,-0.10,
3.927,12.17,1.63,-10.17,0.13,-4.89,-0.10,
3.927,12.17,1.63,-10.17,-0.11,-5.02,-0.11,
3.931,12.96,1.01,-9.15,-0.11,-5.02,-0.11,
3.932,12.96,1.01,-9.15,-0.34,-5.14,-0.11,
3.939,12.96,1.01,-9.15,-0.55,-5.24,-0.14,
3.939,13.72,0.43,-7.93,-0.55,-5.24,-0.14,
3.941,13.72,0.43,-7.93,-0.73,-5.33,-0.18,
3.942,14.32,-0.23,-6.78,-0.73,-5.33,-0.18,
3.946,14.69,-0.93,-5.68,-0.73,-5.33,-0.18,
3.947,14.69,-0.93,-5.68,-0.87,-5.37,-0.23,
3.951,14.69,-0.93,-5.68,-0.99,-5.42,-0.29,
3.951,14.83,-1.69,-4.63,-0.99,-5.42,-0.29,
3.955,14.83,-1.69,-4.63,-1.07,-5.45,-0.35,
3.957,14.81,-2.42,-3.55,-1.07,-5.45,-0.35,
3.961,14.65,-3.05,-2.56,-1.07,-5.45,-0.35,
3.961,14.65,-3.05,-2.56,-1.12,-5.48,-0.40,
3.965,14.39,-3.69,-1.70,-1.12,-5.48,-0.40,
3.966,14.39,-3.69,-1.70,-1.15,-5.51,-0.44,
3.971,14.22,-4.30,-0.90,-1.15,-5.51,-0.44,
3.972,14.22,-4.30,-0.90,-1.16,-5.53,-0.45,
3.976,14.22,-4.30,-0.90,-1.15,-5.56,-0.45,
3.976,14.13,-4.82,-0.21,-1.15,-5.56,-0.45,
3.98,14.13,-4.82,-0.21,-1.13,-5.60,-0.44,
3.981,14.02,-5.47,0.30,-1.13,-5.60,-0.44,
3.985,14.02,-5.47,0.30,-1.11,-5.65,-0.43,
3.986,13.91,-6.09,0.64,-1.11,-5.65,-0.43,
3.99,13.71,-6.72,0.86,-1.11,-5.65,-0.43,
3.991,13.71,-6.72,0.86,-1.10,-5.69,-0.40,
3.995,13.50,-7.23,1.11,-1.10,-5.69,-0.40,
3.996,13.50,-7.23,1.11,-1.09,-5.74,-0.35,
4.0,13.29,-7.70,1.32,-1.09,-5.74,-0.35,
4.037,13.29,-7.70,1.32,-1.10,-5.75,-0.29,
4.037,13.29,-7.70,1.32,-1.13,-5.74,-0.22,
4.038,13.01,-8.22,1.56,-1.13,-5.74,-0.22,
4.038,13.01,-8.22,1.56,-1.16,-5.71,-0.14,
4.039,12.69,-8.64,2.04,-1.16,-5.71,-0.14,
4.039,12.33,-8.94,2.63,-1.16,-5.71,-0.14,
4.04,12.33,-8.94,2.63,-1.18,-5.66,-0.03,
4.04,12.33,-8.94,2.63,-1.17,-5.62,0.09,
4.041,11.98,-9.18,3.38,-1.17,-5.62,0.09,
4.041,11.98,-9.18,3.38,-1.13,-5.58,0.23,
4.042,11.69,-9.47,4.10,-1.13,-5.58,0.23,
4.042,11.69,-9.47,4.10,-1.04,-5.56,0.39,
4.042,11.42,-9.68,4.80,-1.04,-5.56,0.39,
4.043,11.28,-9.82,5.37,-1.04,-5.56,0.39,
4.043,11.28,-9.82,5.37,-0.90,-5.55,0.55,
4.044,11.29,-9.97,5.96,-0.90,-5.55,0.55,
4.044,11.29,-9.97,5.96,-0.73,-5.55,0.72,
4.045,11.45,-10.07,6.40,-0.73,-5.55,0.72,
4.045,11.45,-10.07,6.40,-0.52,-5.57,0.89,
4.06,11.91,-10.14,6.53,-0.52,-5.57,0.89,
4.061,11.91,-10.14,6.53,-0.27,-5.61,1.06,
4.061,13.00,-10.00,6.52,-0.27,-5.61,1.06,
4.062,13.00,-10.00,6.52,-0.01,-5.68,1.22,
4.062,14.52,-9.69,6.35,-0.01,-5.68,1.22,
4.063,14.52,-9.69,6.35,0.28,-5.76,1.33,
4.064,14.52,-9.69,6.35,0.57,-5.88,1.38,
4.064,15.94,-9.41,6.13,0.57,-5.88,1.38,
4.069,16.88,-9.25,5.84,0.57,-5.88,1.38,
4.069,16.88,-9.25,5.84,0.88,-6.05,1.35,
4.122,17.20,-9.14,5.66,0.88,-6.05,1.35,
4.122,17.20,-9.14,5.66,1.19,-6.25,1.28,
4.123,17.20,-9.14,5.66,1.49,-6.45,1.19,
4.123,17.11,-9.00,5.36,1.49,-6.45,1.19,
4.123,17.11,-9.00,5.36,1.78,-6.67,1.12,
4.124,16.69,-8.90,4.89,1.78,-6.67,1.12,
4.124,16.06,-8.81,4.47,1.78,-6.67,1.12,
4.125,16.06,-8.81,4.47,2.04,-6.87,1.11,
4.125,16.06,-8.81,4.47,2.26,-7.04,1.14,
4.126,15.44,-8.62,4.16,2.26,-7.04,1.14,
4.126,14.96,-8.37,3.95,2.26,-7.04,1.14,
4.127,14.96,-8.37,3.95,2.47,-7.17,1.22,
4.127,14.68,-8.16,3.61,2.47,-7.17,1.22,
4.128,14.68,-8.16,3.61,2.65,-7.27,1.35,
4.128,14.68,-8.16,3.61,2.82,-7.35,1.51,
4.129,14.58,-8.03,3.00,2.82,-7.35,1.51,
4.129,14.58,-8.03,3.00,2.93,-7.40,1.72,
4.13,14.79,-7.94,2.13,2.93,-7.40,1.72,
4.131,14.79,-7.94,2.13,2.99,-7.41,1.94,
4.131,15.23,-7.69,1.21,2.99,-7.41,1.94,
4.131,15.23,-7.69,1.21,3.00,-7.35,2.17,
4.132,16.04,-7.38,0.32,3.00,-7.35,2.17,
4.132,16.04,-7.38,0.32,2.95,-7.27,2.38,
4.133,16.91,-7.04,-0.50,2.95,-7.27,2.38,
4.134,17.82,-6.68,-1.37,2.95,-7.27,2.38,
4.134,17.82,-6.68,-1.37,2.86,-7.17,2.57,
4.179,18.80,-6.36,-2.28,2.86,-7.17,2.57,
4.179,18.80,-6.36,-2.28,2.72,-7.05,2.74,
4.18,18.80,-6.36,-2.28,2.54,-6.91,2.90,
4.18,19.98,-5.95,-3.15,2.54,-6.91,2.90,
4.18,19.98,-5.95,-3.15,2.32,-6.77,3.02,
4.181,21.43,-5.47,-3.76,2.32,-6.77,3.02,
4.181,21.43,-5.47,-3.76,2.07,-6.63,3.11,
4.181,23.03,-4.96,-4.16,2.07,-6.63,3.11,
4.182,24.43,-4.43,-4.31,2.07,-6.63,3.11,
4.182,24.43,-4.43,-4.31,1.82,-6.52,3.14,
4.183,24.43,-4.43,-4.31,1.58,-6.45,3.12,
4.183,25.37,-3.95,-4.20,1.58,-6.45,3.12,
4.183,25.92,-3.61,-3.87,1.58,-6.45,3.12,
4.184,25.92,-3.61,-3.87,1.35,-6.42,3.07,
4.184,25.92,-3.61,-3.87,1.16,-6.42,3.00,
4.185,26.25,-3.36,-3.37,1.16,-6.42,3.00,
4.185,26.25,-3.36,-3.37,1.00,-6.45,2.94,
4.186,26.23,-3.25,-2.85,1.00,-6.45,2.94,
4.186,26.23,-3.25,-2.85,0.89,-6.51,2.89,
4.186,25.92,-3.27,-2.38,0.89,-6.51,2.89,
4.187,25.92,-3.27,-2.38,0.80,-6.57,2.87,
4.187,25.51,-3.39,-2.02,0.80,-6.57,2.87,
4.19,25.13,-3.55,-1.71,0.80,-6.57,2.87,
4.19,25.13,-3.55,-1.71,0.74,-6.64,2.88,
4.195,24.89,-3.68,-1.50,0.74,-6.64,2.88,
4.196,24.89,-3.68,-1.50,0.69,-6.71,2.92,
4.2,24.89,-3.68,-1.50,0.67,-6.78,2.97,
4.2,24.71,-3.71,-1.62,0.67,-6.78,2.97,
4.213,24.54,-3.79,-2.38,0.67,-6.78,2.97,
4.214,24.54,-3.79,-2.38,0.63,-6.85,3.03,
4.214,24.54,-3.79,-2.38,0.55,-6.91,3.11,
4.215,24.53,-4.03,-3.72,0.55,-6.91,3.11,
4.217,24.74,-4.47,-5.17,0.55,-6.91,3.11,
4.217,24.74,-4.47,-5.17,0.40,-6.96,3.19,
4.219,25.25,-4.97,-6.39,0.40,-6.96,3.19,
4.22,25.25,-4.97,-6.39,0.15,-6.99,3.29,
4.24,25.96,-5.47,-7.37,0.15,-6.99,3.29,
4.241,25.96,-5.47,-7.37,-0.17,-6.98,3.37,
4.242,26.78,-5.97,-8.16,-0.17,-6.98,3.37,
4.242,26.78,-5.97,-8.16,-0.56,-6.94,3.45,
4.243,26.78,-5.97,-8.16,-0.99,-6.89,3.52,
4.244,27.88,-6.40,-8.80,-0.99,-6.89,3.52,
4.244,27.88,-6.40,-8.80,-1.46,-6.86,3.59,
4.245,29.11,-6.85,-9.40,-1.46,-6.86,3.59,
4.245,29.11,-6.85,-9.40,-1.96,-6.85,3.64,
4.285,30.43,-7.32,-9.68,-1.96,-6.85,3.64,
4.286,31.68,-7.80,-9.56,-1.96,-6.85,3.64,
4.286,31.68,-7.80,-9.56,-2.49,-6.86,3.65,
4.287,32.78,-8.36,-8.97,-2.49,-6.86,3.65,
4.288,32.78,-8.36,-8.97,-3.00,-6.89,3.63,
4.288,33.55,-8.96,-7.92,-3.00,-6.89,3.63,
4.289,33.55,-8.96,-7.92,-3.48,-6.94,3.58,
4.289,33.99,-9.56,-6.49,-3.48,-6.94,3.58,
4.29,33.99,-9.56,-6.49,-3.91,-7.02,3.54,
4.29,33.99,-9.56,-6.49,-4.26,-7.08,3.50,
4.291,34.43,-10.12,-5.13,-4.26,-7.08,3.50,
4.292,34.43,-10.12,-5.13,-4.54,-7.15,3.47,
4.292,34.73,-10.50,-3.92,-4.54,-7.15,3.47,
4.293,34.83,-10.68,-2.85,-4.54,-7.15,3.47,
4.293,34.83,-10.68,-2.85,-4.75,-7.23,3.43,
4.294,34.83,-10.68,-2.85,-4.91,-7.31,3.39,
4.294,34.89,-10.58,-1.96,-4.91,-7.31,3.39,
4.295,35.18,-10.40,-1.15,-4.91,-7.31,3.39,
4.296,35.18,-10.40,-1.15,-5.02,-7.38,3.35,
4.296,35.18,-10.40,-1.15,-5.08,-7.45,3.31,
4.297,35.48,-10.11,-0.18,-5.08,-7.45,3.31,
4.298,35.87,-9.77,0.30,-5.08,-7.45,3.31,
4.298,35.87,-9.77,0.30,-5.07,-7.51,3.26,
4.308,35.87,-9.77,0.30,-5.02,-7.56,3.19,
4.308,36.29,-9.36,0.30,-5.02,-7.56,3.19,
4.309,36.98,-8.97,-0.20,-5.02,-7.56,3.19,
4.309,36.98,-8.97,-0.20,-4.97,-7.62,3.11,
4.312,36.98,-8.97,-0.20,-4.92,-7.68,2.99,
4.313,37.95,-8.77,-0.82,-4.92,-7.68,2.99,
4.317,37.95,-8.77,-0.82,-4.90,-7.75,2.84,
4.318,38.56,-8.76,-1.59,-4.90,-7.75,2.84,
4.322,38.56,-8.76,-1.59,-4.91,-7.82,2.66,
4.324,38.40,-8.89,-2.61,-4.91,-7.82,2.66,
4.326,38.40,-8.89,-2.61,-5.00,-7.90,2.47,
4.327,38.24,-9.20,-3.76,-5.00,-7.90,2.47,
4.331,38.08,-9.89,-4.73,-5.00,-7.90,2.47,
4.332,38.08,-9.89,-4.73,-5.17,-7.98,2.29,
4.336,37.92,-10.86,-5.33,-5.17,-7.98,2.29,
4.337,37.92,-10.86,-5.33,-5.43,-8.05,2.12,
4.349,37.76,-12.10,-5.44,-5.43,-8.05,2.12,
4.35,37.76,-12.10,-5.44,-5.75,-8.10,1.96,
4.35,37.58,-13.50,-4.99,-5.75,-8.10,1.96,
4.351,37.58,-13.50,-4.99,-6.11,-8.12,1.82,
4.351,37.58,-13.50,-4.99,-6.48,-8.12,1.69,
4.354,37.14,-14.85,-3.99,-6.48,-8.12,1.69,
4.379,36.93,-16.25,-2.36,-6.48,-8.12,1.69,
4.38,36.93,-16.25,-2.36,-6.84,-8.12,1.60,
4.38,36.93,-16.25,-2.36,-7.13,-8.14,1.51,
4.381,36.86,-17.49,-0.23,-7.13,-8.14,1.51,
4.381,36.86,-17.49,-0.23,-7.34,-8.19,1.42,
4.382,36.80,-18.60,2.61,-7.34,-8.19,1.42,
4.382,36.59,-19.46,5.93,-7.34,-8.19,1.42,
4.383,36.59,-19.46,5.93,-7.43,-8.26,1.31,
4.383,36.07,-20.07,9.49,-7.43,-8.26,1.31,
4.384,36.07,-20.07,9.49,-7.37,-8.36,1.16,
4.384,34.96,-20.23,13.15,-7.37,-8.36,1.16,
4.385,34.96,-20.23,13.15,-7.14,-8.46,1.01,
4.385,33.31,-19.71,16.74,-7.14,-8.46,1.01,
4.386,33.31,-19.71,16.74,-6.73,-8.55,0.87,
4.392,31.38,-18.52,20.07,-6.73,-8.55,0.87,
4.393,31.38,-18.52,20.07,-6.15,-8.64,0.79,
4.396,31.38,-18.52,20.07,-5.40,-8.71,0.78,
4.397,29.52,-16.85,23.07,-5.40,-8.71,0.78,
4.4,29.52,-16.85,23.07,-4.51,-8.77,0.84,
4.4,28.58,-15.01,25.23,-4.51,-8.77,0.84,
4.407,28.58,-15.01,25.23,-3.54,-8.85,0.93,
4.408,27.95,-13.04,26.82,-3.54,-8.85,0.93,
4.41,27.95,-13.04,26.82,-2.51,-8.87,1.01,
4.41,28.07,-11.13,27.53,-2.51,-8.87,1.01,
4.414,28.07,-11.13,27.53,-1.48,-8.80,1.06,
4.415,28.98,-9.35,27.39,-1.48,-8.80,1.06,
4.419,28.98,-9.35,27.39,-0.50,-8.66,1.05,
4.419,30.44,-7.61,26.36,-0.50,-8.66,1.05,
4.424,30.44,-7.61,26.36,0.37,-8.45,0.94,
4.424,31.86,-6.04,24.80,0.37,-8.45,0.94,
4.429,32.12,-4.89,23.06,0.37,-8.45,0.94,
4.429,32.12,-4.89,23.06,1.13,-8.19,0.73,
4.433,31.12,-4.16,21.74,1.13,-8.19,0.73,
4.434,31.12,-4.16,21.74,1.76,-7.91,0.45,
4.448,29.47,-3.80,21.08,1.76,-7.91,0.45,
4.45,29.47,-3.80,21.08,2.28,-7.65,0.18,
4.45,27.71,-3.73,21.07,2.28,-7.65,0.18,
4.451,27.71,-3.73,21.07,2.74,-7.44,-0.05,
4.451,25.82,-4.08,21.28,2.74,-7.44,-0.05,
4.452,25.82,-4.08,21.28,3.17,-7.30,-0.22,
4.454,23.63,-5.01,21.55,3.17,-7.30,-0.22,
4.455,23.63,-5.01,21.55,3.60,-7.20,-0.37,
4.458,21.53,-6.19,22.28,3.60,-7.20,-0.37,
4.459,21.53,-6.19,22.28,4.00,-7.13,-0.47,
4.463,21.53,-6.19,22.28,4.40,-7.10,-0.53,
4.464,19.50,-7.09,23.89,4.40,-7.10,-0.53,
4.467,17.22,-7.57,26.04,4.40,-7.10,-0.53,
4.468,17.22,-7.57,26.04,4.83,-7.12,-0.53,
4.486,17.22,-7.57,26.04,5.32,-7.14,-0.49,
4.487,14.70,-7.55,28.32,5.32,-7.14,-0.49,
4.488,14.70,-7.55,28.32,5.87,-7.16,-0.41,
4.489,11.96,-6.63,30.15,5.87,-7.16,-0.41,
4.49,9.35,-5.25,31.13,5.87,-7.16,-0.41,
4.49,9.35,-5.25,31.13,6.44,-7.11,-0.28,
4.491,7.58,-4.09,31.58,6.44,-7.11,-0.28,
4.528,7.58,-4.09,31.58,7.00,-6.93,-0.11,
4.529,7.58,-4.09,31.58,7.52,-6.61,0.09,
4.529,7.13,-3.17,31.73,7.52,-6.61,0.09,
4.53,7.79,-2.39,31.53,7.52,-6.61,0.09,
4.531,7.79,-2.39,31.53,7.98,-6.13,0.27,
4.531,9.00,-1.66,30.13,7.98,-6.13,0.27,
4.532,9.00,-1.66,30.13,8.38,-5.53,0.41,
4.532,9.00,-1.66,30.13,8.69,-4.87,0.49,
4.533,9.98,-0.93,27.35,8.69,-4.87,0.49,
4.533,9.98,-0.93,27.35,8.82,-4.17,0.53,
4.534,10.31,0.16,24.01,8.82,-4.17,0.53,
4.534,10.31,0.16,24.01,8.78,-3.50,0.53,
4.535,9.90,1.65,20.81,8.78,-3.50,0.53,
4.536,9.90,1.65,20.81,8.57,-2.93,0.54,
4.536,9.08,3.09,17.96,8.57,-2.93,0.54,
4.536,9.08,3.09,17.96,8.23,-2.45,0.59,
4.537,8.36,4.35,15.60,8.23,-2.45,0.59,
4.537,8.36,4.35,15.60,7.77,-2.05,0.69,
4.538,7.77,5.66,13.71,7.77,-2.05,0.69,
4.538,7.00,7.39,12.28,7.77,-2.05,0.69,
4.539,7.00,7.39,12.28,7.21,-1.69,0.80,
4.545,6.39,9.39,11.22,7.21,-1.69,0.80,
4.546,6.39,9.39,11.22,6.59,-1.35,0.94,
4.546,6.01,11.34,10.43,6.59,-1.35,0.94,
4.547,6.01,11.34,10.43,5.92,-1.03,1.10,
4.557,6.31,12.93,10.07,5.92,-1.03,1.10,
4.558,6.31,12.93,10.07,5.20,-0.70,1.26,
4.559,6.31,12.93,10.07,4.46,-0.35,1.42,
4.559,7.34,14.10,10.44,4.46,-0.35,1.42,
4.584,7.34,14.10,10.44,3.75,0.01,1.54,
4.585,8.62,15.09,11.49,3.75,0.01,1.54,
4.585,8.62,15.09,11.49,3.11,0.36,1.59,
4.586,9.87,16.10,13.07,3.11,0.36,1.59,
4.586,9.87,16.10,13.07,2.57,0.69,1.59,
4.587,11.01,17.01,14.62,2.57,0.69,1.59,
4.587,12.26,17.54,16.07,2.57,0.69,1.59,
4.587,12.26,17.54,16.07,2.15,1.00,1.53,
4.588,12.26,17.54,16.07,1.84,1.26,1.42,
4.589,13.64,17.70,17.41,1.84,1.26,1.42,
4.59,14.98,17.64,18.61,1.84,1.26,1.42,
4.591,14.98,17.64,18.61,1.63,1.50,1.27,
4.591,14.98,17.64,18.61,1.52,1.75,1.07,
4.594,16.06,17.38,19.60,1.52,1.75,1.07,
4.594,16.06,17.38,19.60,1.50,1.99,0.81,
4.595,16.70,17.03,20.29,1.50,1.99,0.81,
4.759,16.97,16.57,20.70,1.50,1.99,0.81,
4.76,16.97,16.57,20.70,1.55,2.25,0.53,
4.76,16.93,15.95,20.87,1.55,2.25,0.53,
4.761,16.93,15.95,20.87,1.66,2.50,0.25,
4.761,16.93,15.95,20.87,1.83,2.73,-0.03,
4.762,16.86,15.15,20.78,1.83,2.73,-0.03,
4.762,16.86,15.15,20.78,2.05,2.95,-0.29,
4.763,16.89,14.26,20.19,2.05,2.95,-0.29,
4.763,16.89,14.26,20.19,2.29,3.15,-0.53,
4.764,16.96,13.32,19.19,2.29,3.15,-0.53,
4.764,16.96,13.32,19.19,2.52,3.30,-0.77,
4.764,16.85,12.39,18.09,2.52,3.30,-0.77,
4.765,16.85,12.39,18.09,2.76,3.40,-1.00,
4.765,16.71,11.61,17.16,2.76,3.40,-1.00,
4.766,16.72,10.76,16.27,2.76,3.40,-1.00,
4.766,16.72,10.76,16.27,3.00,3.45,-1.22,
4.766,16.72,10.76,16.27,3.23,3.45,-1.42,
4.767,16.88,10.02,15.33,3.23,3.45,-1.42,
4.767,17.27,9.35,14.27,3.23,3.45,-1.42,
4.768,17.27,9.35,14.27,3.45,3.44,-1.61,
4.768,17.70,8.60,13.31,3.45,3.44,-1.61,
4.768,17.70,8.60,13.31,3.65,3.42,-1.81,
4.769,17.70,8.60,13.31,3.82,3.40,-2.02,
4.769,18.25,7.74,12.94,3.82,3.40,-2.02,
4.769,19.00,7.01,13.09,3.82,3.40,-2.02,
4.77,19.00,7.01,13.09,4.00,3.39,-2.24,
4.77,19.49,6.39,13.15,4.00,3.39,-2.24,
4.771,19.49,6.39,13.15,4.22,3.39,-2.48,
4.771,19.76,5.73,12.74,4.22,3.39,-2.48,
4.771,19.76,5.73,12.74,4.47,3.38,-2.74,
4.772,20.11,4.86,12.11,4.47,3.38,-2.74,
4.772,20.11,4.86,12.11,4.74,3.38,-2.98,
4.773,20.11,4.86,12.11,5.01,3.37,-3.23,
4.773,20.63,3.86,11.46,5.01,3.37,-3.23,
4.773,21.25,2.89,10.45,5.01,3.37,-3.23,
4.774,21.25,2.89,10.45,5.28,3.35,-3.47,
4.774,21.25,2.89,10.45,5.54,3.32,-3.72,
4.775,21.72,1.92,8.87,5.54,3.32,-3.72,
4.775,21.72,1.92,8.87,5.77,3.26,-3.97,
4.775,21.92,0.98,7.01,5.77,3.26,-3.97,
4.776,21.92,0.98,7.01,5.94,3.19,-4.21,
4.776,22.00,0.13,5.10,5.94,3.19,-4.21,
4.776,22.07,-0.61,3.30,5.94,3.19,-4.21,
4.777,22.07,-0.61,3.30,6.04,3.08,-4.44,
4.777,22.07,-0.61,3.30,6.07,2.93,-4.68,
4.777,22.27,-1.06,1.86,6.07,2.93,-4.68,
4.778,22.27,-1.06,1.86,6.02,2.75,-4.92,
4.778,22.39,-1.12,0.54,6.02,2.75,-4.92,
4.779,22.19,-0.85,-0.88,6.02,2.75,-4.92,
4.779,22.19,-0.85,-0.88,5.91,2.55,-5.18,
4.779,21.20,-0.40,-2.53,5.91,2.55,-5.18,
4.78,21.20,-0.40,-2.53,5.70,2.41,-5.43,
4.78,19.69,0.19,-4.25,5.70,2.41,-5.43,
4.781,19.69,0.19,-4.25,5.37,2.35,-5.65,
4.781,18.16,0.85,-5.66,5.37,2.35,-5.65,
4.811,18.16,0.85,-5.66,4.91,2.40,-5.81,
4.811,18.16,0.85,-5.66,4.35,2.56,-5.89,
4.812,17.01,1.46,-6.80,4.35,2.56,-5.89,
4.812,16.06,1.98,-7.53,4.35,2.56,-5.89,
4.813,16.06,1.98,-7.53,3.70,2.77,-5.90,
4.813,15.59,2.42,-7.67,3.70,2.77,-5.90,
4.813,15.59,2.42,-7.67,3.00,2.98,-5.85,
4.814,16.01,2.85,-7.30,3.00,2.98,-5.85,
4.814,16.01,2.85,-7.30,2.31,3.18,-5.77,
4.815,16.01,2.85,-7.30,1.64,3.35,-5.67,
4.815,17.31,3.29,-6.50,1.64,3.35,-5.67,
4.816,18.78,3.48,-5.58,1.64,3.35,-5.67,
4.816,18.78,3.48,-5.58,1.03,3.51,-5.60,
4.816,19.87,3.37,-4.72,1.03,3.51,-5.60,
4.817,19.87,3.37,-4.72,0.49,3.65,-5.58,
4.817,20.62,3.13,-4.05,0.49,3.65,-5.58,
4.818,20.62,3.13,-4.05,0.02,3.79,-5.60,
4.818,21.26,2.93,-3.17,0.02,3.79,-5.60,
4.818,21.26,2.93,-3.17,-0.40,3.91,-5.63,
4.819,22.04,2.67,-2.20,-0.40,3.91,-5.63,
4.819,22.04,2.67,-2.20,-0.76,4.00,-5.66,
4.82,23.01,2.34,-1.11,-0.76,4.00,-5.66,
4.821,23.01,2.34,-1.11,-1.04,4.07,-5.70,
4.821,23.01,2.34,-1.11,-1.25,4.09,-5.76,
4.821,24.02,1.80,0.11,-1.25,4.09,-5.76,
4.822,24.02,1.80,0.11,-1.37,4.09,-5.84,
4.823,24.96,1.13,1.19,-1.37,4.09,-5.84,
4.823,25.75,0.29,1.92,-1.37,4.09,-5.84,
4.824,25.75,0.29,1.92,-1.44,4.09,-5.92,
4.824,25.75,0.29,1.92,-1.47,4.12,-6.01,
4.825,26.24,-0.63,2.42,-1.47,4.12,-6.01,
4.825,26.54,-1.62,2.79,-1.47,4.12,-6.01,
4.826,26.54,-1.62,2.79,-1.49,4.18,-6.08,
4.826,26.53,-2.61,3.08,-1.49,4.18,-6.08,
4.827,26.53,-2.61,3.08,-1.51,4.28,-6.12,
4.827,26.35,-3.56,3.29,-1.51,4.28,-6.12,
4.828,26.35,-3.56,3.29,-1.52,4.43,-6.14,
4.828,26.35,-3.56,3.29,-1.53,4.62,-6.11,
4.829,26.28,-4.45,3.25,-1.53,4.62,-6.11,
4.829,26.37,-5.22,3.08,-1.53,4.62,-6.11,
4.83,26.37,-5.22,3.08,-1.55,4.84,-6.03,
4.839,26.37,-5.22,3.08,-1.58,5.09,-5.93,
4.84,26.57,-5.87,2.77,-1.58,5.09,-5.93,
4.84,26.57,-5.87,2.77,-1.61,5.38,-5.80,
4.841,26.63,-6.33,2.30,-1.61,5.38,-5.80,
4.844,26.55,-6.68,1.90,-1.61,5.38,-5.80,
4.844,26.55,-6.68,1.90,-1.66,5.67,-5.67,
4.848,26.55,-6.68,1.90,-1.72,5.97,-5.51,
4.849,26.48,-6.97,1.40,-1.72,5.97,-5.51,
4.853,26.48,-6.97,1.40,-1.77,6.26,-5.32,
4.854,26.56,-7.14,0.87,-1.77,6.26,-5.32,
4.864,26.56,-7.14,0.87,-1.82,6.51,-5.13,
4.865,27.00,-7.27,0.48,-1.82,6.51,-5.13,
4.865,27.67,-7.37,0.23,-1.82,6.51,-5.13,
4.865,27.67,-7.37,0.23,-1.87,6.73,-4.93,
4.867,27.67,-7.37,0.23,-1.90,6.91,-4.75,
4.868,28.39,-7.49,0.20,-1.90,6.91,-4.75,
4.905,28.39,-7.49,0.20,-1.89,7.05,-4.58,
4.907,29.15,-7.62,0.19,-1.89,7.05,-4.58,
4.907,29.15,-7.62,0.19,-1.86,7.14,-4.44,
4.907,29.81,-7.80,0.19,-1.86,7.14,-4.44,
4.908,29.81,-7.80,0.19,-1.79,7.18,-4.31,
4.908,30.41,-7.97,0.32,-1.79,7.18,-4.31,
4.909,30.41,-7.97,0.32,-1.69,7.20,-4.20,
4.909,31.18,-8.09,0.47,-1.69,7.20,-4.20,
4.909,31.93,-8.28,0.69,-1.69,7.20,-4.20,
4.91,31.93,-8.28,0.69,-1.56,7.20,-4.11,
4.91,31.93,-8.28,0.69,-1.38,7.17,-4.04,
4.911,32.55,-8.50,0.78,-1.38,7.17,-4.04,
4.911,32.55,-8.50,0.78,-1.18,7.12,-3.99,
4.911,33.03,-8.80,0.61,-1.18,7.12,-3.99,
4.912,33.03,-8.80,0.61,-0.95,7.05,-3.97,
4.912,33.20,-9.03,0.35,-0.95,7.05,-3.97,
4.913,33.09,-9.31,0.22,-0.95,7.05,-3.97,
4.913,33.09,-9.31,0.22,-0.72,6.96,-3.96,
4.916,33.09,-9.31,0.22,-0.47,6.85,-3.96,
4.917,32.56,-9.73,0.06,-0.47,6.85,-3.96,
4.921,32.56,-9.73,0.06,-0.23,6.75,-3.94,
4.922,31.68,-10.13,-0.13,-0.23,6.75,-3.94,
4.933,30.56,-10.50,-0.28,-0.23,6.75,-3.94,
4.935,30.56,-10.50,-0.28,-0.00,6.67,-3.90,
4.935,29.28,-10.85,-0.53,-0.00,6.67,-3.90,
4.936,29.28,-10.85,-0.53,0.21,6.62,-3.83,
4.936,28.09,-11.16,-0.92,0.21,6.62,-3.83,
4.937,28.09,-11.16,-0.92,0.42,6.60,-3.72,
4.942,28.09,-11.16,-0.92,0.59,6.61,-3.56,
4.943,27.19,-11.37,-1.29,0.59,6.61,-3.56,
4.946,26.59,-11.48,-1.77,0.59,6.61,-3.56,
4.947,26.59,-11.48,-1.77,0.73,6.64,-3.37,
4.951,26.21,-11.53,-2.17,0.73,6.64,-3.37,
4.951,26.21,-11.53,-2.17,0.85,6.68,-3.18,
4.955,25.99,-11.62,-2.51,0.85,6.68,-3.18,
4.956,25.99,-11.62,-2.51,0.94,6.74,-2.97,
4.96,26.00,-11.73,-2.81,0.94,6.74,-2.97,
4.961,26.00,-11.73,-2.81,1.01,6.80,-2.77,
4.965,26.05,-11.85,-2.97,1.01,6.80,-2.77,
4.966,26.05,-11.85,-2.97,1.06,6.89,-2.57,
4.97,26.23,-11.90,-3.03,1.06,6.89,-2.57,
4.97,26.23,-11.90,-3.03,1.10,6.99,-2.38,
4.98,26.63,-11.90,-3.21,1.10,6.99,-2.38,
5.017,26.63,-11.90,-3.21,1.14,7.10,-2.20,
5.017,27.14,-11.92,-3.47,1.14,7.10,-2.20,
5.018,27.14,-11.92,-3.47,1.16,7.21,-2.04,
5.018,27.60,-12.01,-3.65,1.16,7.21,-2.04,
5.018,27.60,-12.01,-3.65,1.19,7.30,-1.91,
5.019,27.60,-12.01,-3.65,1.22,7.37,-1.81,
5.019,28.18,-11.97,-3.94,1.22,7.37,-1.81,
5.02,28.18,-11.97,-3.94,1.26,7.43,-1.74,
5.02,28.99,-11.68,-4.24,1.26,7.43,-1.74,
5.021,28.99,-11.68,-4.24,1.32,7.44,-1.70,
5.021,30.05,-11.35,-4.45,1.32,7.44,-1.70,
5.021,30.05,-11.35,-4.45,1.40,7.43,-1.73,
5.022,30.79,-11.26,-4.62,1.40,7.43,-1.73,
5.022,30.78,-11.40,-4.78,1.40,7.43,-1.73,
5.023,30.78,-11.40,-4.78,1.49,7.39,-1.81,
5.024,30.78,-11.40,-4.78,1.60,7.34,-1.95,
5.024,29.93,-11.57,-5.04,1.60,7.34,-1.95,
5.024,28.54,-11.63,-5.42,1.60,7.34,-1.95,
5.025,28.54,-11.63,-5.42,1.71,7.27,-2.08,
5.025,28.54,-11.63,-5.42,1.82,7.18,-2.19,
5.025,26.91,-11.68,-5.92,1.82,7.18,-2.19,
5.03,25.27,-11.77,-6.35,1.82,7.18,-2.19,
5.03,25.27,-11.77,-6.35,1.90,7.04,-2.26,
5.033,23.83,-11.90,-6.61,1.90,7.04,-2.26,
5.034,23.83,-11.90,-6.61,1.96,6.88,-2.28,
5.038,22.55,-12.09,-6.59,1.96,6.88,-2.28,
5.039,22.55,-12.09,-6.59,2.00,6.71,-2.28,
5.043,21.37,-12.36,-6.61,2.00,6.71,-2.28,
5.044,21.37,-12.36,-6.61,2.03,6.55,-2.25,
5.048,20.28,-12.54,-6.71,2.03,6.55,-2.25,
5.049,20.28,-12.54,-6.71,2.04,6.41,-2.19,
5.053,19.27,-12.62,-6.76,2.04,6.41,-2.19,
5.053,19.27,-12.62,-6.76,2.02,6.29,-2.12,
5.058,19.27,-12.62,-6.76,1.98,6.20,-2.02,
5.059,18.31,-12.67,-6.75,1.98,6.20,-2.02,
5.063,18.31,-12.67,-6.75,1.91,6.14,-1.92,
5.063,17.49,-12.70,-6.79,1.91,6.14,-1.92,
5.068,16.67,-12.70,-6.78,1.91,6.14,-1.92,
5.068,16.67,-12.70,-6.78,1.81,6.10,-1.81,
5.072,15.79,-12.76,-6.55,1.81,6.10,-1.81,
5.073,15.79,-12.76,-6.55,1.69,6.09,-1.68,
5.083,15.79,-12.76,-6.55,1.57,6.10,-1.53,
5.084,14.83,-12.76,-6.12,1.57,6.10,-1.53,
5.084,13.97,-12.62,-5.36,1.57,6.10,-1.53,
5.085,13.97,-12.62,-5.36,1.45,6.14,-1.37,
5.087,13.39,-12.44,-4.56,1.45,6.14,-1.37,
5.089,13.39,-12.44,-4.56,1.36,6.22,-1.20,
5.113,13.39,-12.44,-4.56,1.29,6.30,-1.01,
5.114,13.20,-12.28,-4.04,1.29,6.30,-1.01,
5.115,13.20,-12.28,-4.04,1.25,6.35,-0.85,
5.115,13.31,-12.12,-3.75,1.25,6.35,-0.85,
5.115,13.31,-12.12,-3.75,1.23,6.37,-0.70,
5.116,14.04,-11.79,-3.59,1.23,6.37,-0.70,
5.116,14.04,-11.79,-3.59,1.22,6.37,-0.59,
5.116,15.43,-11.25,-3.62,1.22,6.37,-0.59,
5.117,15.43,-11.25,-3.62,1.23,6.35,-0.54,
5.117,17.35,-10.58,-3.85,1.23,6.35,-0.54,
5.118,17.35,-10.58,-3.85,1.24,6.31,-0.59,
5.118,19.17,-9.86,-4.23,1.24,6.31,-0.59,
5.153,20.18,-9.41,-4.78,1.24,6.31,-0.59,
5.153,20.18,-9.41,-4.78,1.27,6.26,-0.74,
5.154,20.14,-9.32,-5.50,1.27,6.26,-0.74,
5.154,20.14,-9.32,-5.50,1.29,6.20,-0.97,
5.155,19.27,-9.47,-6.13,1.29,6.20,-0.97,
5.155,19.27,-9.47,-6.13,1.29,6.13,-1.22,
5.156,19.27,-9.47,-6.13,1.28,6.06,-1.43,
5.156,17.77,-9.53,-6.58,1.28,6.06,-1.43,
5.157,17.77,-9.53,-6.58,1.27,5.96,-1.59,
5.157,15.93,-9.51,-6.70,1.27,5.96,-1.59,
5.157,15.93,-9.51,-6.70,1.27,5.83,-1.68,
5.158,14.02,-9.50,-6.55,1.27,5.83,-1.68,
5.158,14.02,-9.50,-6.55,1.29,5.64,-1.70,
5.159,12.49,-9.58,-6.04,1.29,5.64,-1.70,
5.159,12.49,-9.58,-6.04,1.36,5.41,-1.67,
5.159,11.33,-9.60,-5.17,1.36,5.41,-1.67,
5.162,10.71,-9.44,-4.01,1.36,5.41,-1.67,
5.163,10.71,-9.44,-4.01,1.50,5.15,-1.59,
5.165,10.71,-9.44,-4.01,1.71,4.89,-1.49,
5.166,10.56,-9.08,-3.05,1.71,4.89,-1.49,
5.17,10.56,-9.08,-3.05,1.98,4.65,-1.41,
5.171,10.52,-8.80,-2.71,1.98,4.65,-1.41,
5.175,10.52,-8.80,-2.71,2.28,4.47,-1.34,
5.176,10.58,-8.67,-2.89,2.28,4.47,-1.34,
5.18,10.78,-8.53,-3.56,2.28,4.47,-1.34,
5.181,10.78,-8.53,-3.56,2.57,4.34,-1.29,
5.184,11.22,-8.34,-4.65,2.57,4.34,-1.29,
5.185,11.22,-8.34,-4.65,2.83,4.27,-1.26,
5.189,11.80,-8.01,-6.01,2.83,4.27,-1.26,
5.19,11.80,-8.01,-6.01,3.05,4.23,-1.26,
5.194,11.80,-8.01,-6.01,3.21,4.20,-1.29,
5.195,12.10,-7.60,-7.53,3.21,4.20,-1.29,
5.2,12.10,-7.60,-7.53,3.33,4.16,-1.36,
5.201,11.95,-7.32,-9.29,3.33,4.16,-1.36,
5.204,11.29,-7.18,-10.99,3.33,4.16,-1.36,
5.205,11.29,-7.18,-10.99,3.38,4.07,-1.43,
5.215,10.28,-7.14,-12.57,3.38,4.07,-1.43,
5.216,10.28,-7.14,-12.57,3.37,3.96,-1.50,
5.217,9.40,-7.00,-13.92,3.37,3.96,-1.50,
5.217,9.40,-7.00,-13.92,3.31,3.83,-1.54,
5.219,9.40,-7.00,-13.92,3.19,3.70,-1.54,
5.251,8.82,-6.84,-15.17,3.19,3.70,-1.54,
5.251,8.57,-6.95,-16.29,3.19,3.70,-1.54,
5.252,8.57,-6.95,-16.29,3.05,3.55,-1.53,
5.252,8.57,-6.95,-16.29,2.89,3.37,-1.52,
5.252,8.34,-7.75,-17.12,2.89,3.37,-1.52,
5.253,8.34,-7.75,-17.12,2.75,3.19,-1.51,
5.253,8.24,-8.94,-17.71,2.75,3.19,-1.51,
5.253,8.24,-8.94,-17.71,2.64,2.97,-1.51,
5.254,8.39,-10.28,-18.11,2.64,2.97,-1.51,
5.254,8.39,-10.28,-18.11,2.56,2.70,-1.49,
5.255,8.43,-11.54,-18.88,2.56,2.70,-1.49,
5.255,8.31,-12.83,-20.13,2.56,2.70,-1.49,
5.255,8.31,-12.83,-20.13,2.49,2.40,-1.40,
5.256,8.31,-12.83,-20.13,2.39,2.09,-1.17,
5.256,8.84,-14.45,-21.34,2.39,2.09,-1.17,
5.26,11.75,-15.69,-22.48,2.39,2.09,-1.17,
5.261,11.75,-15.69,-22.48,2.25,1.88,-0.78,
5.263,11.75,-15.69,-22.48,2.09,2.04,-0.43,
5.264,14.67,-16.58,-23.25,2.09,2.04,-0.43,
5.268,14.67,-16.58,-23.25,1.91,2.54,-0.31,
5.269,14.45,-15.76,-23.67,1.91,2.54,-0.31,
5.273,14.45,-15.76,-23.67,1.68,3.00,-0.34,
5.273,10.52,-12.55,-23.87,1.68,3.00,-0.34,
5.277,10.52,-12.55,-23.87,1.39,3.22,-0.32,
5.278,6.48,-8.09,-23.38,1.39,3.22,-0.32,
5.282,6.48,-8.09,-23.38,1.11,3.20,-0.21,
5.283,5.35,-4.80,-21.47,1.11,3.20,-0.21,
5.287,5.35,-4.80,-21.47,0.95,2.94,-0.10,
5.288,6.85,-3.87,-18.85,0.95,2.94,-0.10,
5.298,6.85,-3.87,-18.85,0.96,2.46,-0.14,
5.299,8.75,-4.82,-16.77,0.96,2.46,-0.14,
5.299,8.75,-4.82,-16.77,1.12,1.89,-0.33,
5.3,9.10,-6.26,-15.42,1.12,1.89,-0.33,
5.302,9.10,-6.26,-15.42,1.36,1.32,-0.58,
5.302,7.45,-6.85,-14.60,1.36,1.32,-0.58,
5.306,4.56,-6.69,-14.01,1.36,1.32,-0.58,
5.307,4.56,-6.69,-14.01,1.63,0.83,-0.78,
5.321,4.56,-6.69,-14.01,1.89,0.42,-0.87,
5.321,1.84,-6.43,-13.99,1.89,0.42,-0.87,
5.322,1.84,-6.43,-13.99,2.12,0.07,-0.85,
5.322,0.13,-6.41,-14.58,2.12,0.07,-0.85,
5.322,0.13,-6.41,-14.58,2.28,-0.27,-0.77,
5.323,-0.65,-6.68,-15.73,2.28,-0.27,-0.77,
5.332,-0.65,-6.68,-15.73,2.36,-0.59,-0.68,
5.333,-1.25,-7.02,-17.05,2.36,-0.59,-0.68,
5.334,-2.04,-7.07,-18.36,2.36,-0.59,-0.68,
5.334,-2.04,-7.07,-18.36,2.34,-0.86,-0.59,
5.336,-2.92,-6.85,-19.31,2.34,-0.86,-0.59,
5.336,-2.92,-6.85,-19.31,2.22,-1.09,-0.48,
5.341,-2.92,-6.85,-19.31,2.01,-1.28,-0.35,
5.341,-3.68,-6.38,-19.94,2.01,-1.28,-0.35,
5.346,-4.14,-5.91,-20.41,2.01,-1.28,-0.35,
5.347,-4.14,-5.91,-20.41,1.74,-1.43,-0.19,
5.351,-4.29,-5.53,-20.72,1.74,-1.43,-0.19,
5.351,-4.29,-5.53,-20.72,1.42,-1.53,-0.02,
5.355,-4.29,-5.53,-20.72,1.04,-1.60,0.14,
5.356,-4.04,-5.24,-20.85,1.04,-1.60,0.14,
5.361,-3.61,-4.99,-20.68,1.04,-1.60,0.14,
5.362,-3.61,-4.99,-20.68,0.63,-1.63,0.29,
5.365,-3.25,-4.75,-20.07,0.63,-1.63,0.29,
5.366,-3.25,-4.75,-20.07,0.21,-1.66,0.40,
5.37,-3.25,-4.75,-20.07,-0.20,-1.69,0.49,
5.371,-2.73,-4.56,-18.98,-0.20,-1.69,0.49,
5.377,-2.14,-4.73,-17.53,-0.20,-1.69,0.49,
5.379,-2.14,-4.73,-17.53,-0.57,-1.76,0.57,
5.381,-1.52,-5.20,-15.79,-0.57,-1.76,0.57,
5.382,-1.52,-5.20,-15.79,-0.88,-1.86,0.65,
5.385,-1.52,-5.20,-15.79,-1.11,-1.97,0.75,
5.385,-0.82,-5.72,-13.84,-1.11,-1.97,0.75,
5.39,-0.82,-5.72,-13.84,-1.25,-2.06,0.86,
5.391,-0.18,-6.14,-11.89,-1.25,-2.06,0.86,
5.395,-0.18,-6.14,-11.89,-1.29,-2.14,0.99,
5.396,0.41,-6.47,-10.07,-1.29,-2.14,0.99,
5.4,1.19,-6.76,-8.46,-1.29,-2.14,0.99,
5.401,1.19,-6.76,-8.46,-1.24,-2.20,1.13,
5.404,2.41,-7.08,-7.23,-1.24,-2.20,1.13,
5.405,2.41,-7.08,-7.23,-1.11,-2.27,1.28,
5.418,4.64,-7.54,-6.48,-1.11,-2.27,1.28,
5.419,4.64,-7.54,-6.48,-0.90,-2.35,1.42,
5.419,4.64,-7.54,-6.48,-0.63,-2.48,1.51,
5.42,8.39,-8.36,-6.25,-0.63,-2.48,1.51,
5.421,13.26,-9.47,-6.71,-0.63,-2.48,1.51,
5.422,13.26,-9.47,-6.71,-0.31,-2.66,1.43,
5.424,15.57,-9.16,-7.97,-0.31,-2.66,1.43,
5.424,15.57,-9.16,-7.97,-0.01,-2.78,0.99,
5.448,15.57,-9.16,-7.97,0.18,-2.74,0.04,
5.449,11.42,-8.24,-9.90,0.18,-2.74,0.04,
5.449,11.42,-8.24,-9.90,0.22,-2.74,-1.07,
5.449,2.38,-7.79,-10.29,0.22,-2.74,-1.07,
5.45,2.38,-7.79,-10.29,0.13,-3.00,-1.69,
5.45,-10.40,-7.82,-10.16,0.13,-3.00,-1.69,
5.451,-10.40,-7.82,-10.16,-0.07,-3.51,-1.40,
5.451,-20.75,-8.29,-9.99,-0.07,-3.51,-1.40,
5.452,-20.75,-8.29,-9.99,-0.34,-4.15,-0.17,
5.452,-23.35,-9.09,-8.34,-0.34,-4.15,-0.17,
5.453,-19.18,-9.86,-5.61,-0.34,-4.15,-0.17,
5.454,-19.18,-9.86,-5.61,-0.58,-4.67,1.52,
5.471,-11.58,-10.08,-3.24,-0.58,-4.67,1.52,
5.472,-11.58,-10.08,-3.24,-0.68,-4.84,3.11,
5.473,-1.63,-8.94,-2.68,-0.68,-4.84,3.11,
5.508,-1.63,-8.94,-2.68,-0.62,-4.70,4.40,
5.509,-1.63,-8.94,-2.68,-0.52,-4.32,5.33,
5.51,9.51,-6.63,-3.92,-0.52,-4.32,5.33,
5.51,20.63,-3.94,-5.98,-0.52,-4.32,5.33,
5.511,20.63,-3.94,-5.98,-0.46,-3.80,5.79,
5.511,20.63,-3.94,-5.98,-0.47,-3.30,5.72,
5.512,30.73,-1.39,-8.09,-0.47,-3.30,5.72,
5.512,30.73,-1.39,-8.09,-0.56,-2.94,5.14,
5.513,38.25,0.65,-10.25,-0.56,-2.94,5.14,
5.513,40.01,1.85,-11.82,-0.56,-2.94,5.14,
5.514,40.01,1.85,-11.82,-0.72,-2.68,4.16,
5.514,40.01,1.85,-11.82,-0.93,-2.53,3.00,
5.515,39.93,2.25,-12.55,-0.93,-2.53,3.00,
5.515,39.93,2.25,-12.55,-1.19,-2.55,1.84,
5.516,36.39,2.14,-12.40,-1.19,-2.55,1.84,
5.517,36.39,2.14,-12.40,-1.46,-2.68,0.88,
5.517,28.88,1.73,-11.29,-1.46,-2.68,0.88,
5.518,28.88,1.73,-11.29,-1.72,-2.84,0.25,
5.518,21.14,0.92,-9.84,-1.72,-2.84,0.25,
5.519,14.51,-0.15,-8.39,-1.72,-2.84,0.25,
5.519,14.51,-0.15,-8.39,-1.96,-3.05,-0.00,
5.52,14.51,-0.15,-8.39,-2.16,-3.29,0.07,
5.52,10.06,-1.51,-7.03,-2.16,-3.29,0.07,
5.527,8.06,-3.09,-6.23,-2.16,-3.29,0.07,
5.528,8.06,-3.09,-6.23,-2.31,-3.50,0.35,
5.528,7.94,-4.58,-5.89,-2.31,-3.50,0.35,
5.528,7.94,-4.58,-5.89,-2.47,-3.67,0.71,
5.537,7.94,-4.58,-5.89,-2.63,-3.76,1.06,
5.538,8.98,-5.58,-5.57,-2.63,-3.76,1.06,
5.538,8.98,-5.58,-5.57,-2.80,-3.80,1.33,
5.539,10.57,-6.04,-4.87,-2.80,-3.80,1.33,
5.541,10.57,-6.04,-4.87,-2.94,-3.82,1.51,
5.541,12.37,-6.24,-3.95,-2.94,-3.82,1.51,
5.615,12.37,-6.24,-3.95,-3.05,-3.84,1.59,
5.617,14.03,-6.58,-2.91,-3.05,-3.84,1.59,
5.618,14.03,-6.58,-2.91,-3.10,-3.89,1.58,
5.62,15.31,-7.15,-1.98,-3.10,-3.89,1.58,
5.621,15.31,-7.15,-1.98,-3.12,-3.97,1.49,
5.622,15.94,-7.85,-1.18,-3.12,-3.97,1.49,
5.623,15.94,-7.85,-1.18,-3.10,-4.05,1.36,
5.624,15.87,-8.60,-0.66,-3.10,-4.05,1.36,
5.624,15.87,-8.60,-0.66,-3.07,-4.14,1.22,
5.625,15.18,-9.37,-0.12,-3.07,-4.14,1.22,
5.625,15.18,-9.37,-0.12,-3.04,-4.23,1.09,
5.626,14.13,-10.11,0.42,-3.04,-4.23,1.09,
5.627,14.13,-10.11,0.42,-2.99,-4.32,1.02,
5.627,12.95,-10.78,1.07,-2.99,-4.32,1.02,
5.628,12.95,-10.78,1.07,-2.92,-4.43,0.99,
5.629,11.86,-11.38,1.68,-2.92,-4.43,0.99,
5.629,11.86,-11.38,1.68,-2.83,-4.53,1.02,
5.63,10.92,-12.01,1.98,-2.83,-4.53,1.02,
5.63,10.92,-12.01,1.98,-2.74,-4.64,1.09,
5.631,10.13,-12.49,2.15,-2.74,-4.64,1.09,
5.632,10.13,-12.49,2.15,-2.63,-4.76,1.20,
5.632,9.57,-12.85,2.15,-2.63,-4.76,1.20,
5.633,9.57,-12.85,2.15,-2.53,-4.89,1.35,
5.633,9.33,-12.93,2.11,-2.53,-4.89,1.35,
5.634,9.33,-12.93,2.11,-2.44,-5.03,1.52,
5.634,9.33,-12.89,1.92,-2.44,-5.03,1.52,
5.635,9.33,-12.89,1.92,-2.37,-5.16,1.70,
5.635,9.58,-12.75,1.55,-2.37,-5.16,1.70,
5.636,10.10,-12.59,1.08,-2.37,-5.16,1.70,
5.636,10.10,-12.59,1.08,-2.32,-5.28,1.89,
5.637,10.10,-12.59,1.08,-2.31,-5.38,2.06,
5.638,10.84,-12.45,0.68,-2.31,-5.38,2.06,
5.638,11.83,-12.32,0.33,-2.31,-5.38,2.06,
5.639,11.83,-12.32,0.33,-2.34,-5.44,2.21,
5.639,11.83,-12.32,0.33,-2.40,-5.47,2.33,
5.64,13.05,-12.18,0.20,-2.40,-5.47,2.33,
5.64,13.05,-12.18,0.20,-2.48,-5.46,2.41,
5.641,14.33,-12.05,0.22,-2.48,-5.46,2.41,
5.642,14.33,-12.05,0.22,-2.57,-5.42,2.44,
5.642,15.44,-11.95,0.43,-2.57,-5.42,2.44,
5.696,15.44,-11.95,0.43,-2.65,-5.36,2.44,
5.697,16.21,-11.88,0.78,-2.65,-5.36,2.44,
5.697,16.21,-11.88,0.78,-2.72,-5.28,2.41,
5.698,16.54,-11.89,1.17,-2.72,-5.28,2.41,
5.698,16.67,-11.89,1.51,-2.72,-5.28,2.41,
5.699,16.67,-11.89,1.51,-2.76,-5.20,2.38,
5.699,16.67,-12.01,1.61,-2.76,-5.20,2.38,
5.699,16.67,-12.01,1.61,-2.78,-5.11,2.37,
5.7,16.67,-12.01,1.61,-2.78,-5.02,2.39,
5.7,16.74,-12.18,1.52,-2.78,-5.02,2.39,
5.701,16.83,-12.39,1.18,-2.78,-5.02,2.39,
5.702,16.83,-12.39,1.18,-2.78,-4.94,2.43,
5.702,16.82,-12.61,0.74,-2.78,-4.94,2.43,
5.702,16.82,-12.61,0.74,-2.79,-4.88,2.49,
5.703,16.82,-12.61,0.74,-2.81,-4.84,2.56,
5.703,16.74,-12.85,0.49,-2.81,-4.84,2.56,
5.704,16.74,-12.85,0.49,-2.84,-4.85,2.66,
5.704,16.58,-13.14,0.47,-2.84,-4.85,2.66,
5.705,16.58,-13.14,0.47,-2.85,-4.89,2.79,
5.705,16.52,-13.44,0.77,-2.85,-4.89,2.79,
5.705,16.52,-13.44,0.77,-2.84,-4.97,2.95,
5.706,16.56,-13.70,1.01,-2.84,-4.97,2.95,
5.706,16.71,-13.93,1.34,-2.84,-4.97,2.95,
5.707,16.71,-13.93,1.34,-2.79,-5.06,3.16,
5.707,17.09,-13.98,1.81,-2.79,-5.06,3.16,
5.708,17.09,-13.98,1.81,-2.69,-5.13,3.41,
5.708,17.90,-13.58,2.25,-2.69,-5.13,3.41,
5.737,17.90,-13.58,2.25,-2.54,-5.16,3.69,
5.737,19.02,-12.59,2.39,-2.54,-5.16,3.69,
5.738,19.02,-12.59,2.39,-2.33,-5.16,3.97,
5.738,20.50,-11.04,1.94,-2.33,-5.16,3.97,
5.739,20.50,-11.04,1.94,-2.09,-5.12,4.21,
5.739,22.14,-9.21,1.02,-2.09,-5.12,4.21,
5.74,22.14,-9.21,1.02,-1.83,-5.09,4.40,
5.74,22.14,-9.21,1.02,-1.59,-5.07,4.52,
5.741,23.49,-7.33,-0.11,-1.59,-5.07,4.52,
5.741,23.49,-7.33,-0.11,-1.38,-5.05,4.57,
5.742,25.17,-5.60,-1.40,-1.38,-5.05,4.57,
5.742,27.00,-4.04,-2.56,-1.38,-5.05,4.57,
5.743,27.00,-4.04,-2.56,-1.20,-5.08,4.56,
5.743,27.00,-4.04,-2.56,-1.05,-5.18,4.49,
5.744,28.43,-2.61,-3.57,-1.05,-5.18,4.49,
5.759,28.43,-2.61,-3.57,-0.91,-5.31,4.37,
5.76,29.35,-1.31,-4.33,-0.91,-5.31,4.37,
5.761,29.35,-1.31,-4.33,-0.76,-5.48,4.24,
5.762,29.89,-0.05,-4.90,-0.76,-5.48,4.24,
5.763,29.89,-0.05,-4.90,-0.61,-5.69,4.13,
5.763,30.35,1.00,-5.40,-0.61,-5.69,4.13,
5.764,30.35,1.00,-5.40,-0.46,-5.93,4.02,
5.764,30.77,1.81,-6.07,-0.46,-5.93,4.02,
5.766,30.77,1.81,-6.07,-0.33,-6.20,3.92,
5.766,31.32,2.37,-6.94,-0.33,-6.20,3.92,
5.77,31.32,2.37,-6.94,-0.23,-6.46,3.83,
5.771,32.20,2.76,-8.00,-0.23,-6.46,3.83,
5.775,33.32,2.98,-9.21,-0.23,-6.46,3.83,
5.775,33.32,2.98,-9.21,-0.18,-6.69,3.73,
5.783,34.22,3.07,-10.35,-0.18,-6.69,3.73,
5.783,34.22,3.07,-10.35,-0.22,-6.89,3.61,
5.784,34.22,3.07,-10.35,-0.32,-7.04,3.45,
5.785,34.64,3.02,-11.34,-0.32,-7.04,3.45,
5.789,34.64,3.02,-11.34,-0.51,-7.14,3.28,
5.79,34.66,2.73,-12.08,-0.51,-7.14,3.28,
5.801,34.38,2.27,-12.57,-0.51,-7.14,3.28,
5.802,34.38,2.27,-12.57,-0.76,-7.21,3.13,
5.803,34.38,2.27,-12.57,-1.07,-7.25,3.01,
5.804,34.19,1.61,-12.81,-1.07,-7.25,3.01,
5.804,34.19,1.61,-12.81,-1.44,-7.28,2.93,
5.805,34.34,0.91,-12.74,-1.44,-7.28,2.93,
5.809,34.34,0.91,-12.74,-1.85,-7.30,2.88,
5.81,34.77,0.15,-12.42,-1.85,-7.30,2.88,
5.869,34.89,-0.65,-11.73,-1.85,-7.30,2.88,
5.871,34.89,-0.65,-11.73,-2.28,-7.32,2.83,
5.872,34.79,-1.56,-10.76,-2.28,-7.32,2.83,
5.873,34.79,-1.56,-10.76,-2.73,-7.33,2.75,
5.874,34.79,-1.56,-10.76,-3.18,-7.35,2.66,
5.874,34.69,-2.63,-9.53,-3.18,-7.35,2.66,
5.875,34.69,-2.63,-9.53,-3.61,-7.39,2.55,
5.876,34.59,-3.75,-8.00,-3.61,-7.39,2.55,
5.879,34.59,-3.75,-8.00,-4.02,-7.45,2.43,
5.879,34.51,-4.90,-6.14,-4.02,-7.45,2.43,
5.88,34.51,-4.90,-6.14,-4.38,-7.52,2.28,
5.881,34.43,-6.12,-4.21,-4.38,-7.52,2.28,
5.882,34.43,-6.12,-4.21,-4.68,-7.60,2.12,
5.882,34.36,-7.41,-2.25,-4.68,-7.60,2.12,
5.883,34.29,-8.61,-0.39,-4.68,-7.60,2.12,
5.884,34.29,-8.61,-0.39,-4.94,-7.69,1.96,
5.884,34.23,-9.65,1.47,-4.94,-7.69,1.96,
5.885,34.23,-9.65,1.47,-5.15,-7.79,1.81,
5.886,34.18,-10.57,3.36,-5.15,-7.79,1.81,
5.886,34.18,-10.57,3.36,-5.33,-7.89,1.66,
5.887,34.18,-10.57,3.36,-5.48,-7.97,1.51,
5.887,34.14,-11.49,5.18,-5.48,-7.97,1.51,
5.888,34.14,-11.49,5.18,-5.59,-8.00,1.35,
5.889,34.09,-12.30,7.07,-5.59,-8.00,1.35,
5.889,34.09,-12.30,7.07,-5.68,-7.99,1.16,
5.89,34.06,-12.87,8.56,-5.68,-7.99,1.16,
5.891,34.06,-12.87,8.56,-5.75,-7.91,0.97,
5.891,34.03,-13.40,9.46,-5.75,-7.91,0.97,
5.892,34.03,-13.40,9.46,-5.85,-7.77,0.81,
5.892,34.01,-14.05,9.83,-5.85,-7.77,0.81,
5.893,34.01,-14.05,9.83,-5.99,-7.55,0.69,
5.894,33.98,-14.87,10.21,-5.99,-7.55,0.69,
5.895,32.96,-15.70,11.16,-5.99,-7.55,0.69,
5.896,32.96,-15.70,11.16,-6.16,-7.30,0.61,
5.905,32.96,-15.70,11.16,-6.33,-7.04,0.57,
5.905,31.79,-16.37,12.70,-6.33,-7.04,0.57,
5.906,31.79,-16.37,12.70,-6.45,-6.80,0.53,
5.907,30.73,-16.86,14.67,-6.45,-6.80,0.53,
5.907,30.73,-16.86,14.67,-6.49,-6.60,0.47,
5.908,29.55,-17.16,16.69,-6.49,-6.60,0.47,
5.913,28.31,-17.32,18.70,-6.49,-6.60,0.47,
5.914,28.31,-17.32,18.70,-6.43,-6.45,0.39,
5.917,28.31,-17.32,18.70,-6.28,-6.39,0.31,
5.918,27.17,-17.34,20.65,-6.28,-6.39,0.31,
5.921,27.17,-17.34,20.65,-6.03,-6.39,0.23,
5.922,26.24,-17.26,22.64,-6.03,-6.39,0.23,
5.927,26.24,-17.26,22.64,-5.68,-6.47,0.14,
5.928,25.26,-17.14,24.66,-5.68,-6.47,0.14,
5.937,24.08,-16.92,26.39,-5.68,-6.47,0.14,
5.939,24.08,-16.92,26.39,-5.23,-6.61,0.04,
5.94,24.08,-16.92,26.39,-4.69,-6.81,-0.06,
5.941,22.64,-16.59,27.72,-4.69,-6.81,-0.06,
5.941,22.64,-16.59,27.72,-4.09,-7.05,-0.14,
5.942,21.08,-16.03,28.66,-4.09,-7.05,-0.14,
5.968,21.08,-16.03,28.66,-3.46,-7.29,-0.20,
5.969,19.51,-15.27,28.97,-3.46,-7.29,-0.20,
5.97,19.51,-15.27,28.97,-2.82,-7.50,-0.22,
6.003,18.10,-14.36,28.65,-2.82,-7.50,-0.22,
6.004,16.90,-13.53,27.90,-2.82,-7.50,-0.22,
6.005,16.90,-13.53,27.90,-2.22,-7.64,-0.22,
6.006,15.95,-12.69,27.04,-2.22,-7.64,-0.22,
6.007,15.95,-12.69,27.04,-1.68,-7.71,-0.18,
6.007,15.95,-12.69,27.04,-1.22,-7.68,-0.14,
6.008,15.29,-11.86,25.91,-1.22,-7.68,-0.14,
6.009,15.29,-11.86,25.91,-0.84,-7.55,-0.12,
6.009,14.59,-10.95,24.85,-0.84,-7.55,-0.12,
6.01,14.59,-10.95,24.85,-0.53,-7.33,-0.10,
6.011,13.87,-10.13,23.92,-0.53,-7.33,-0.10,
6.011,13.87,-10.13,23.92,-0.28,-7.04,-0.10,
6.012,13.02,-9.53,22.98,-0.28,-7.04,-0.10,
6.012,13.02,-9.53,22.98,-0.08,-6.72,-0.09,
6.013,12.13,-9.15,22.08,-0.08,-6.72,-0.09,
6.013,12.13,-9.15,22.08,0.05,-6.37,-0.06,
6.014,11.18,-8.82,21.28,0.05,-6.37,-0.06,
6.014,11.18,-8.82,21.28,0.15,-6.02,-0.01,
6.015,10.18,-8.38,20.70,0.15,-6.02,-0.01,
6.015,9.34,-7.96,20.36,0.15,-6.02,-0.01,
6.016,9.34,-7.96,20.36,0.22,-5.67,0.06,
6.016,9.34,-7.96,20.36,0.26,-5.35,0.14,
6.017,8.64,-7.61,20.33,0.26,-5.35,0.14,
6.017,8.05,-7.35,20.53,0.26,-5.35,0.14,
6.018,8.05,-7.35,20.53,0.32,-5.05,0.22,
6.018,7.51,-6.94,20.77,0.32,-5.05,0.22,
6.018,7.51,-6.94,20.77,0.38,-4.77,0.29,
6.019,7.51,-6.94,20.77,0.46,-4.50,0.36,
6.019,7.00,-6.32,21.00,0.46,-4.50,0.36,
6.027,6.63,-5.54,21.38,0.46,-4.50,0.36,
6.027,6.63,-5.54,21.38,0.55,-4.25,0.41,
6.038,6.34,-4.90,21.97,0.55,-4.25,0.41,
6.039,6.34,-4.90,21.97,0.66,-3.99,0.44,
6.039,6.16,-4.64,22.84,0.66,-3.99,0.44,
6.04,6.16,-4.64,22.84,0.81,-3.74,0.46,
6.04,6.16,-4.64,22.84,1.01,-3.47,0.46,
6.04,5.83,-4.33,23.49,1.01,-3.47,0.46,
6.043,5.83,-4.33,23.49,1.27,-3.21,0.46,
6.043,5.40,-4.22,23.01,1.27,-3.21,0.46,
6.061,4.74,-3.89,22.04,1.27,-3.21,0.46,
6.062,4.74,-3.89,22.04,1.50,-3.03,0.48,
6.062,4.74,-3.89,22.04,1.67,-2.84,0.52,
6.063,4.51,-3.44,21.11,1.67,-2.84,0.52,
6.063,4.51,-3.44,21.11,1.80,-2.64,0.56,
6.064,4.62,-2.93,20.18,1.80,-2.64,0.56,
6.064,4.66,-2.51,19.34,1.80,-2.64,0.56,
6.065,4.66,-2.51,19.34,1.87,-2.46,0.59,
6.068,4.66,-2.51,19.34,1.89,-2.27,0.61,
6.068,4.56,-2.08,18.73,1.89,-2.27,0.61,
6.254,4.56,-2.08,18.73,1.88,-2.07,0.63,
6.255,4.40,-1.70,18.19,1.88,-2.07,0.63,
6.255,4.40,-1.70,18.19,1.83,-1.86,0.64,
6.256,4.07,-1.37,17.60,1.83,-1.86,0.64,
6.256,4.07,-1.37,17.60,1.74,-1.65,0.67,
6.257,3.53,-1.01,16.88,1.74,-1.65,0.67,
6.257,3.53,-1.01,16.88,1.61,-1.42,0.72,
6.257,3.07,-0.60,16.10,1.61,-1.42,0.72,
6.258,2.83,-0.14,15.31,1.61,-1.42,0.72,
6.258,2.83,-0.14,15.31,1.42,-1.21,0.79,
6.259,2.87,0.21,14.70,1.42,-1.21,0.79,
6.259,2.87,0.21,14.70,1.20,-1.01,0.87,
6.26,3.08,0.50,14.26,1.20,-1.01,0.87,
6.26,3.08,0.50,14.26,0.94,-0.81,0.95,
6.261,3.48,0.69,14.02,0.94,-0.81,0.95,
6.261,3.48,0.69,14.02,0.65,-0.61,1.03,
6.262,3.87,0.93,13.97,0.65,-0.61,1.03,
6.262,3.87,0.93,13.97,0.35,-0.40,1.10,
6.262,4.22,1.13,14.12,0.35,-0.40,1.10,
6.263,4.22,1.13,14.12,0.05,-0.17,1.15,
6.264,4.22,1.13,14.12,-0.25,0.05,1.20,
6.264,4.63,1.29,14.37,-0.25,0.05,1.20,
6.265,4.63,1.29,14.37,-0.53,0.26,1.25,
6.265,5.17,1.33,14.65,-0.53,0.26,1.25,
6.265,5.77,1.30,15.00,-0.53,0.26,1.25,
6.266,5.77,1.30,15.00,-0.79,0.45,1.28,
6.266,5.77,1.30,15.00,-1.03,0.62,1.29,
6.266,6.38,1.31,15.41,-1.03,0.62,1.29,
6.267,6.38,1.31,15.41,-1.25,0.79,1.29,
6.267,7.03,1.33,15.92,-1.25,0.79,1.29,
6.267,7.03,1.33,15.92,-1.43,0.96,1.26,
6.268,7.61,1.27,16.69,-1.43,0.96,1.26,
6.268,8.08,1.15,17.68,-1.43,0.96,1.26,
6.268,8.08,1.15,17.68,-1.56,1.13,1.21,
6.269,8.31,1.00,18.67,-1.56,1.13,1.21,
6.269,8.31,1.00,18.67,-1.62,1.29,1.14,
6.269,8.35,0.82,19.55,-1.62,1.29,1.14,
6.27,8.35,0.82,19.55,-1.62,1.47,1.06,
6.27,8.14,0.64,20.40,-1.62,1.47,1.06,
6.271,8.14,0.64,20.40,-1.55,1.64,0.98,
6.271,8.14,0.64,20.40,-1.42,1.80,0.91,
6.271,7.87,0.49,21.17,-1.42,1.80,0.91,
6.272,7.55,0.25,21.91,-1.42,1.80,0.91,
6.272,7.55,0.25,21.91,-1.23,1.93,0.84,
6.272,7.55,0.25,21.91,-0.97,2.06,0.80,
6.273,7.17,-0.02,22.54,-0.97,2.06,0.80,
6.273,7.17,-0.02,22.54,-0.65,2.19,0.78,
6.274,6.76,-0.26,23.02,-0.65,2.19,0.78,
6.274,6.76,-0.26,23.02,-0.29,2.34,0.79,
6.274,6.53,-0.49,23.39,-0.29,2.34,0.79,
6.275,6.71,-0.61,23.54,-0.29,2.34,0.79,
6.306,6.71,-0.61,23.54,0.11,2.52,0.81,
6.306,6.71,-0.61,23.54,0.54,2.71,0.83,
6.306,7.01,-0.72,23.19,0.54,2.71,0.83,
6.307,7.01,-0.72,23.19,0.98,2.93,0.85,
6.307,7.31,-0.88,22.34,0.98,2.93,0.85,
6.308,7.31,-0.88,22.34,1.39,3.17,0.85,
6.308,7.65,-1.12,21.38,1.39,3.17,0.85,
6.308,7.97,-1.40,20.36,1.39,3.17,0.85,
6.309,7.97,-1.40,20.36,1.77,3.42,0.85,
6.309,7.97,-1.40,20.36,2.12,3.65,0.84,
6.31,8.10,-1.75,19.25,2.12,3.65,0.84,
6.31,8.30,-2.06,18.10,2.12,3.65,0.84,
6.31,8.30,-2.06,18.10,2.42,3.88,0.84,
6.311,8.70,-2.36,17.29,2.42,3.88,0.84,
6.311,8.70,-2.36,17.29,2.70,4.09,0.85,
6.312,8.70,-2.36,17.29,2.95,4.29,0.86,
6.312,9.24,-2.76,16.64,2.95,4.29,0.86,
6.313,9.86,-3.20,15.91,2.95,4.29,0.86,
6.313,9.86,-3.20,15.91,3.19,4.48,0.86,
6.313,9.86,-3.20,15.91,3.42,4.65,0.85,
6.314,10.49,-3.70,15.26,3.42,4.65,0.85,
6.314,10.49,-3.70,15.26,3.65,4.80,0.82,
6.315,11.16,-4.30,14.62,3.65,4.80,0.82,
6.315,11.16,-4.30,14.62,3.88,4.92,0.79,
6.315,12.08,-4.91,13.75,3.88,4.92,0.79,
6.316,12.08,-4.91,13.75,4.09,5.03,0.75,
6.316,13.23,-5.52,12.88,4.09,5.03,0.75,
6.317,13.23,-5.52,12.88,4.30,5.11,0.70,
6.317,14.46,-5.95,12.02,4.30,5.11,0.70,
6.318,14.46,-5.95,12.02,4.50,5.17,0.63,
6.318,15.47,-6.27,11.00,4.50,5.17,0.63,
6.318,15.47,-6.27,11.00,4.69,5.18,0.52,
6.319,16.25,-6.59,10.04,4.69,5.18,0.52,
6.319,16.25,-6.59,10.04,4.85,5.13,0.40,
6.32,16.80,-6.91,9.15,4.85,5.13,0.40,
6.32,16.80,-6.91,9.15,5.00,5.05,0.27,
6.321,17.26,-7.16,8.37,5.00,5.05,0.27,
6.321,17.26,-7.16,8.37,5.11,4.94,0.16,
6.321,17.59,-7.24,7.63,5.11,4.94,0.16,
6.322,17.59,-7.24,7.63,5.20,4.84,0.04,
6.322,17.87,-7.14,6.89,5.20,4.84,0.04,
6.323,17.87,-7.14,6.89,5.24,4.75,-0.06,
6.323,18.04,-6.96,6.26,5.24,4.75,-0.06,
6.324,18.16,-6.70,5.82,5.24,4.75,-0.06,
6.324,18.16,-6.70,5.82,5.26,4.68,-0.15,
6.324,18.16,-6.70,5.82,5.24,4.66,-0.23,
6.325,18.29,-6.41,5.34,5.24,4.66,-0.23,
6.325,18.43,-6.11,4.70,5.24,4.66,-0.23,
6.326,18.43,-6.11,4.70,5.19,4.70,-0.27,
6.326,18.43,-6.11,4.70,5.09,4.82,-0.29,
6.327,18.80,-5.85,4.05,5.09,4.82,-0.29,
6.327,19.48,-5.50,3.27,5.09,4.82,-0.29,
6.327,19.48,-5.50,3.27,4.94,5.01,-0.28,
6.328,20.58,-5.04,2.43,4.94,5.01,-0.28,
6.328,20.58,-5.04,2.43,4.76,5.23,-0.26,
6.338,20.58,-5.04,2.43,4.53,5.45,-0.26,
6.338,22.03,-4.54,1.69,4.53,5.45,-0.26,
6.339,23.60,-4.05,1.03,4.53,5.45,-0.26,
6.34,23.60,-4.05,1.03,4.28,5.66,-0.29,
6.347,24.88,-3.49,0.43,4.28,5.66,-0.29,
6.348,24.88,-3.49,0.43,4.02,5.86,-0.36,
6.348,24.88,-3.49,0.43,3.75,6.05,-0.45,
6.348,25.83,-3.03,-0.11,3.75,6.05,-0.45,
6.365,26.69,-2.66,-0.42,3.75,6.05,-0.45,
6.367,26.69,-2.66,-0.42,3.48,6.20,-0.56,
6.367,27.68,-2.43,-0.41,3.48,6.20,-0.56,
6.368,27.68,-2.43,-0.41,3.23,6.31,-0.68,
6.37,27.68,-2.43,-0.41,3.00,6.36,-0.82,
6.37,28.56,-2.37,-0.16,3.00,6.36,-0.82,
6.371,29.08,-2.45,0.09,3.00,6.36,-0.82,
6.372,29.08,-2.45,0.09,2.82,6.37,-0.98,
6.372,29.29,-2.65,0.28,2.82,6.37,-0.98,
6.373,29.29,-2.65,0.28,2.68,6.34,-1.15,
6.377,29.29,-2.65,0.28,2.58,6.30,-1.31,
6.379,29.07,-2.94,0.32,2.58,6.30,-1.31,
6.381,28.60,-3.25,0.20,2.58,6.30,-1.31,
6.382,28.60,-3.25,0.20,2.49,6.23,-1.46,
6.473,28.14,-3.67,0.01,2.49,6.23,-1.46,
6.476,28.14,-3.67,0.01,2.41,6.17,-1.58,
6.477,27.71,-4.06,-0.28,2.41,6.17,-1.58,
6.478,27.71,-4.06,-0.28,2.32,6.12,-1.67,
6.479,27.30,-4.33,-0.81,2.32,6.12,-1.67,
6.48,27.30,-4.33,-0.81,2.21,6.09,-1.73,
6.481,27.30,-4.33,-0.81,2.08,6.09,-1.77,
6.482,26.89,-4.56,-1.28,2.08,6.09,-1.77,
6.483,26.63,-4.82,-1.58,2.08,6.09,-1.77,
6.484,26.63,-4.82,-1.58,1.92,6.10,-1.79,
6.485,26.63,-4.82,-1.58,1.73,6.14,-1.79,
6.485,26.38,-5.02,-1.69,1.73,6.14,-1.79,
6.485,26.38,-5.02,-1.69,1.54,6.21,-1.77,
6.486,26.20,-5.28,-1.59,1.54,6.21,-1.77,
6.486,26.07,-5.46,-1.21,1.54,6.21,-1.77,
6.487,26.07,-5.46,-1.21,1.35,6.30,-1.75,
6.487,25.91,-5.67,-0.77,1.35,6.30,-1.75,
6.488,25.91,-5.67,-0.77,1.17,6.41,-1.71,
6.488,25.72,-5.90,-0.20,1.17,6.41,-1.71,
6.489,25.72,-5.90,-0.20,1.03,6.53,-1.67,
6.49,25.72,-5.90,-0.20,0.92,6.65,-1.62,
6.49,25.64,-6.10,0.34,0.92,6.65,-1.62,
6.49,25.64,-6.10,0.34,0.85,6.78,-1.55,
6.534,25.71,-6.28,0.72,0.85,6.78,-1.55,
6.535,25.82,-6.46,1.08,0.85,6.78,-1.55,
6.535,25.82,-6.46,1.08,0.80,6.90,-1.49,
6.536,25.82,-6.46,1.08,0.78,7.01,-1.43,
6.537,25.92,-6.69,1.54,0.78,7.01,-1.43,
6.537,26.12,-6.90,2.10,0.78,7.01,-1.43,
6.537,26.12,-6.90,2.10,0.78,7.12,-1.37,
6.538,26.12,-6.90,2.10,0.82,7.22,-1.33,
6.538,26.45,-7.06,2.76,0.82,7.22,-1.33,
6.539,26.45,-7.06,2.76,0.91,7.31,-1.32,
6.539,26.50,-7.31,3.29,0.91,7.31,-1.32,
6.54,26.37,-7.60,3.70,0.91,7.31,-1.32,
6.54,26.37,-7.60,3.70,1.04,7.37,-1.30,
6.541,26.11,-7.92,4.01,1.04,7.37,-1.30,
6.541,26.11,-7.92,4.01,1.20,7.41,-1.28,
6.541,26.11,-7.92,4.01,1.38,7.44,-1.23,
6.542,25.93,-8.16,4.21,1.38,7.44,-1.23,
6.542,25.93,-8.16,4.21,1.58,7.46,-1.18,
6.543,25.99,-8.36,4.41,1.58,7.46,-1.18,
6.543,26.09,-8.47,4.45,1.58,7.46,-1.18,
6.544,26.09,-8.47,4.45,1.80,7.48,-1.12,
6.544,26.09,-8.47,4.45,2.02,7.51,-1.06,
6.545,26.29,-8.62,4.28,2.02,7.51,-1.06,
6.545,26.49,-8.79,3.90,2.02,7.51,-1.06,
6.545,26.49,-8.79,3.90,2.23,7.53,-1.00,
6.546,26.49,-8.79,3.90,2.43,7.57,-0.94,
6.546,26.70,-9.02,3.46,2.43,7.57,-0.94,
6.547,26.70,-9.02,3.46,2.60,7.61,-0.88,
6.547,26.97,-9.18,3.05,2.60,7.61,-0.88,
6.548,26.97,-9.18,3.05,2.75,7.66,-0.82,
6.548,27.51,-9.27,2.85,2.75,7.66,-0.82,
6.549,27.51,-9.27,2.85,2.89,7.73,-0.77,
6.549,28.25,-9.23,2.62,2.89,7.73,-0.77,
6.55,28.74,-9.21,2.32,2.89,7.73,-0.77,
6.55,28.74,-9.21,2.32,3.02,7.80,-0.75,
6.551,29.05,-9.16,1.95,3.02,7.80,-0.75,
6.551,29.05,-9.16,1.95,3.17,7.89,-0.75,
6.552,29.28,-9.19,1.61,3.17,7.89,-0.75,
6.552,29.28,-9.19,1.61,3.31,7.96,-0.76,
6.552,29.28,-9.19,1.61,3.46,8.00,-0.77,
6.553,29.45,-9.35,1.35,3.46,8.00,-0.77,
6.554,29.65,-9.56,1.22,3.46,8.00,-0.77,
6.554,29.65,-9.56,1.22,3.62,8.02,-0.78,
6.555,29.65,-9.56,1.22,3.79,8.02,-0.79,
6.555,29.93,-9.71,1.06,3.79,8.02,-0.79,
6.555,30.21,-9.86,0.79,3.79,8.02,-0.79,
6.556,30.21,-9.86,0.79,3.97,8.01,-0.80,
6.556,30.21,-9.86,0.79,4.15,7.97,-0.83,
6.557,30.52,-10.08,0.32,4.15,7.97,-0.83,
6.601,30.87,-10.31,-0.29,4.15,7.97,-0.83,
6.602,30.87,-10.31,-0.29,4.33,7.91,-0.88,
6.602,31.04,-10.68,-1.06,4.33,7.91,-0.88,
6.603,31.04,-10.68,-1.06,4.49,7.84,-0.95,
6.603,30.89,-11.12,-1.82,4.49,7.84,-0.95,
6.605,30.89,-11.12,-1.82,4.62,7.80,-1.04,
6.606,30.36,-11.59,-2.55,4.62,7.80,-1.04,
6.606,30.36,-11.59,-2.55,4.71,7.76,-1.13,
6.607,29.54,-12.00,-3.14,4.71,7.76,-1.13,
6.607,29.54,-12.00,-3.14,4.77,7.74,-1.21,
6.607,29.54,-12.00,-3.14,4.80,7.73,-1.28,
6.608,28.49,-12.46,-3.53,4.80,7.73,-1.28,
6.608,27.38,-12.95,-3.95,4.80,7.73,-1.28,
6.609,27.38,-12.95,-3.95,4.82,7.70,-1.31,
6.609,27.38,-12.95,-3.95,4.83,7.65,-1.32,
6.609,26.31,-13.39,-4.37,4.83,7.65,-1.32,
6.61,26.31,-13.39,-4.37,4.82,7.58,-1.29,
6.61,25.27,-13.78,-4.95,4.82,7.58,-1.29,
6.611,24.41,-14.02,-5.52,4.82,7.58,-1.29,
6.611,24.41,-14.02,-5.52,4.77,7.50,-1.24,
6.611,24.41,-14.02,-5.52,4.69,7.42,-1.18,
6.612,23.67,-14.15,-5.97,4.69,7.42,-1.18,
6.615,23.67,-14.15,-5.97,4.57,7.34,-1.11,
6.615,22.95,-14.19,-6.36,4.57,7.34,-1.11,
6.619,22.23,-14.28,-6.65,4.57,7.34,-1.11,
6.619,22.23,-14.28,-6.65,4.43,7.28,-1.04,
6.624,22.23,-14.28,-6.65,4.25,7.23,-0.98,
6.624,21.58,-14.41,-6.82,4.25,7.23,-0.98,
6.635,21.58,-14.41,-6.82,4.05,7.21,-0.90,
6.636,20.96,-14.49,-6.81,4.05,7.21,-0.90,
6.637,20.36,-14.44,-7.01,4.05,7.21,-0.90,
6.637,20.36,-14.44,-7.01,3.83,7.21,-0.82,
6.638,19.90,-14.15,-7.11,3.83,7.21,-0.82,
6.64,19.90,-14.15,-7.11,3.59,7.23,-0.74,
6.643,19.70,-13.77,-6.71,3.59,7.23,-0.74,
6.644,19.70,-13.77,-6.71,3.35,7.24,-0.67,
6.658,19.68,-13.43,-5.92,3.35,7.24,-0.67,
6.659,19.68,-13.43,-5.92,3.14,7.22,-0.60,
6.659,19.68,-13.43,-5.92,2.99,7.18,-0.54,
6.66,19.56,-13.25,-5.00,2.99,7.18,-0.54,
6.66,19.56,-13.25,-5.00,2.91,7.11,-0.50,
6.661,19.34,-13.14,-4.23,2.91,7.11,-0.50,
6.684,19.34,-13.14,-4.23,2.89,6.99,-0.48,
6.684,19.11,-13.05,-3.61,2.89,6.99,-0.48,
6.685,19.11,-13.05,-3.61,2.92,6.84,-0.46,
6.685,18.81,-12.85,-3.29,2.92,6.84,-0.46,
6.686,18.81,-12.85,-3.29,2.98,6.64,-0.45,
6.686,18.59,-12.69,-3.13,2.98,6.64,-0.45,
6.687,18.59,-12.69,-3.13,3.05,6.44,-0.43,
6.687,18.58,-12.51,-3.10,3.05,6.44,-0.43,
6.688,18.58,-12.51,-3.10,3.12,6.25,-0.43,
6.715,18.73,-12.36,-3.17,3.12,6.25,-0.43,
6.716,18.73,-12.36,-3.17,3.20,6.08,-0.44,
6.716,18.79,-12.24,-3.30,3.20,6.08,-0.44,
6.716,18.79,-12.24,-3.30,3.27,5.94,-0.48,
6.717,18.73,-12.14,-3.59,3.27,5.94,-0.48,
6.717,18.39,-12.11,-4.03,3.27,5.94,-0.48,
6.717,18.39,-12.11,-4.03,3.32,5.82,-0.54,
6.718,18.39,-12.11,-4.03,3.35,5.72,-0.60,
6.718,17.86,-12.06,-4.47,3.35,5.72,-0.60,
6.718,17.86,-12.06,-4.47,3.37,5.63,-0.66,
6.719,17.21,-11.96,-4.88,3.37,5.63,-0.66,
6.719,17.21,-11.96,-4.88,3.36,5.54,-0.72,
6.72,16.39,-11.81,-5.39,3.36,5.54,-0.72,
6.72,16.39,-11.81,-5.39,3.34,5.42,-0.78,
6.72,15.61,-11.58,-5.81,3.34,5.42,-0.78,
6.725,15.61,-11.58,-5.81,3.29,5.29,-0.82,
6.725,14.88,-11.36,-6.09,3.29,5.29,-0.82,
6.726,14.88,-11.36,-6.09,3.24,5.14,-0.85,
6.726,14.19,-11.19,-6.22,3.24,5.14,-0.85,
6.731,13.60,-11.06,-6.20,3.24,5.14,-0.85,
6.731,13.60,-11.06,-6.20,3.19,4.97,-0.88,
6.736,13.05,-10.86,-6.17,3.19,4.97,-0.88,
6.736,13.05,-10.86,-6.17,3.15,4.80,-0.90,
6.741,12.76,-10.61,-6.20,3.15,4.80,-0.90,
6.741,12.76,-10.61,-6.20,3.12,4.63,-0.91,
6.745,12.58,-10.36,-6.22,3.12,4.63,-0.91,
6.746,12.58,-10.36,-6.22,3.09,4.47,-0.91,
6.753,12.37,-10.13,-6.48,3.09,4.47,-0.91,
6.754,12.37,-10.13,-6.48,3.08,4.33,-0.92,
6.756,12.11,-9.99,-7.01,3.08,4.33,-0.92,
6.756,12.11,-9.99,-7.01,3.07,4.20,-0.94,
6.76,12.11,-9.99,-7.01,3.04,4.08,-0.96,
6.761,11.74,-9.83,-7.73,3.04,4.08,-0.96,
6.776,11.31,-9.49,-8.56,3.04,4.08,-0.96,
6.777,11.31,-9.49,-8.56,2.97,3.96,-0.97,
6.777,10.75,-9.14,-9.37,2.97,3.96,-0.97,
6.778,10.75,-9.14,-9.37,2.88,3.86,-0.99,
6.778,10.75,-9.14,-9.37,2.75,3.77,-1.00,
6.778,10.19,-8.85,-10.17,2.75,3.77,-1.00,
6.784,9.66,-8.50,-10.93,2.75,3.77,-1.00,
6.785,9.66,-8.50,-10.93,2.60,3.69,-0.99,
6.785,9.66,-8.50,-10.93,2.41,3.59,-0.99,
6.786,9.21,-8.23,-11.57,2.41,3.59,-0.99,
6.79,9.21,-8.23,-11.57,2.19,3.50,-0.99,
6.79,8.76,-7.92,-12.02,2.19,3.50,-0.99,
6.794,8.34,-7.75,-12.30,2.19,3.50,-0.99,
6.794,8.34,-7.75,-12.30,1.94,3.43,-0.98,
6.803,8.05,-7.43,-12.35,1.94,3.43,-0.98,
6.804,8.05,-7.43,-12.35,1.68,3.37,-0.97,
6.804,7.78,-7.20,-12.27,1.68,3.37,-0.97,
6.805,7.78,-7.20,-12.27,1.42,3.34,-0.95,
6.809,7.48,-7.00,-12.00,1.42,3.34,-0.95,
6.809,7.48,-7.00,-12.00,1.17,3.31,-0.94,
6.832,7.22,-6.85,-11.92,1.17,3.31,-0.94,
6.833,7.22,-6.85,-11.92,0.94,3.29,-0.93,
6.834,7.22,-6.85,-11.92,0.73,3.25,-0.91,
6.834,6.85,-6.90,-11.84,0.73,3.25,-0.91,
6.834,6.85,-6.90,-11.84,0.52,3.20,-0.87,
6.835,6.52,-7.06,-11.56,0.52,3.20,-0.87,
6.835,6.38,-7.41,-11.03,0.52,3.20,-0.87,
6.835,6.38,-7.41,-11.03,0.34,3.17,-0.79,
6.836,6.57,-7.87,-10.47,0.34,3.17,-0.79,
6.836,6.57,-7.87,-10.47,0.20,3.17,-0.68,
6.839,6.57,-7.87,-10.47,0.10,3.17,-0.56,
6.839,7.05,-8.36,-9.99,0.10,3.17,-0.56,
6.843,7.05,-8.36,-9.99,0.07,3.15,-0.41,
6.844,7.87,-8.87,-9.77,0.07,3.15,-0.41,
6.848,8.94,-9.39,-9.90,0.07,3.15,-0.41,
6.849,8.94,-9.39,-9.90,0.08,3.11,-0.25,
6.853,10.40,-9.88,-9.97,0.08,3.11,-0.25,
6.854,10.40,-9.88,-9.97,0.13,3.07,-0.11,
6.858,10.40,-9.88,-9.97,0.22,3.07,-0.02,
6.858,12.15,-10.49,-9.90,0.22,3.07,-0.02,
6.87,12.15,-10.49,-9.90,0.38,3.12,-0.02,
6.871,13.39,-11.33,-9.62,0.38,3.12,-0.02,
6.871,13.39,-11.33,-9.62,0.63,3.24,-0.10,
6.872,13.77,-11.91,-9.60,0.63,3.24,-0.10,
6.873,13.77,-11.91,-9.60,0.97,3.32,-0.23,
6.873,12.64,-11.57,-10.24,0.97,3.32,-0.23,
6.879,12.64,-11.57,-10.24,1.36,3.28,-0.36,
6.88,10.00,-10.47,-11.86,1.36,3.28,-0.36,
6.896,6.66,-9.13,-14.68,1.36,3.28,-0.36,
6.897,6.66,-9.13,-14.68,1.71,3.11,-0.41,
6.898,6.66,-9.13,-14.68,1.94,2.78,-0.35,
6.898,3.53,-7.92,-17.99,1.94,2.78,-0.35,
6.899,3.53,-7.92,-17.99,2.00,2.35,-0.20,
6.899,1.15,-6.91,-21.03,2.00,2.35,-0.20,
6.899,-0.09,-6.17,-23.33,2.00,2.35,-0.20,
6.9,-0.09,-6.17,-23.33,1.88,1.85,0.01,
6.902,-0.48,-5.50,-24.76,1.88,1.85,0.01,
6.903,-0.48,-5.50,-24.76,1.60,1.34,0.22,
6.906,-0.48,-5.50,-24.76,1.22,0.84,0.41,
6.907,-0.15,-4.89,-25.22,1.22,0.84,0.41,
6.912,0.74,-4.34,-24.84,1.22,0.84,0.41,
6.913,0.74,-4.34,-24.84,0.77,0.41,0.57,
6.922,1.93,-3.94,-23.81,0.77,0.41,0.57,
6.922,1.93,-3.94,-23.81,0.31,0.05,0.66,
6.923,1.93,-3.94,-23.81,-0.12,-0.23,0.70,
6.923,3.10,-3.62,-22.49,-0.12,-0.23,0.70,
6.927,3.10,-3.62,-22.49,-0.51,-0.48,0.67,
6.958,3.94,-3.43,-21.06,-0.51,-0.48,0.67,
6.959,3.94,-3.43,-21.06,-0.85,-0.70,0.61,
6.959,4.28,-3.33,-19.74,-0.85,-0.70,0.61,
6.96,4.28,-3.33,-19.74,-1.15,-0.89,0.52,
6.96,4.22,-3.30,-18.63,-1.15,-0.89,0.52,
6.961,4.22,-3.30,-18.63,-1.40,-1.08,0.45,
6.961,4.00,-3.36,-17.60,-1.40,-1.08,0.45,
6.962,3.96,-3.47,-16.58,-1.40,-1.08,0.45,
6.962,3.96,-3.47,-16.58,-1.64,-1.27,0.40,
6.963,4.01,-3.71,-15.42,-1.64,-1.27,0.40,
6.964,4.01,-3.71,-15.42,-1.84,-1.48,0.37,
6.964,4.36,-3.91,-14.19,-1.84,-1.48,0.37,
6.965,4.36,-3.91,-14.19,-2.00,-1.70,0.36,
6.965,4.90,-4.19,-12.84,-2.00,-1.70,0.36,
6.965,4.90,-4.19,-12.84,-2.12,-1.92,0.36,
6.966,4.90,-4.19,-12.84,-2.19,-2.12,0.37,
6.966,5.53,-4.57,-11.63,-2.19,-2.12,0.37,
6.971,6.26,-4.89,-10.76,-2.19,-2.12,0.37,
6.972,6.26,-4.89,-10.76,-2.22,-2.29,0.39,
6.974,6.26,-4.89,-10.76,-2.21,-2.44,0.41,
6.975,6.96,-5.27,-10.45,-2.21,-2.44,0.41,
6.987,6.96,-5.27,-10.45,-2.21,-2.57,0.44,
6.988,7.60,-5.72,-10.48,-2.21,-2.57,0.44,
6.989,8.18,-6.10,-10.65,-2.21,-2.57,0.44,
6.989,8.18,-6.10,-10.65,-2.23,-2.67,0.47,
6.989,8.18,-6.10,-10.65,-2.27,-2.76,0.50,
6.99,8.54,-6.30,-10.57,-2.27,-2.76,0.50,
6.994,8.54,-6.30,-10.57,-2.33,-2.85,0.55,
6.995,9.01,-6.34,-10.34,-2.33,-2.85,0.55,
7.014,9.01,-6.34,-10.34,-2.38,-2.93,0.61,
7.015,9.85,-6.47,-9.98,-2.38,-2.93,0.61,
7.015,9.85,-6.47,-9.98,-2.42,-3.00,0.64,
7.016,10.95,-6.80,-9.83,-2.42,-3.00,0.64,
7.016,12.01,-7.14,-10.01,-2.42,-3.00,0.64,
7.017,12.01,-7.14,-10.01,-2.44,-3.07,0.64,
7.017,12.73,-7.44,-10.60,-2.44,-3.07,0.64,
7.018,12.73,-7.44,-10.60,-2.45,-3.18,0.59,
7.018,12.73,-7.44,-10.60,-2.49,-3.33,0.49,
7.019,12.79,-7.67,-11.44,-2.49,-3.33,0.49,
7.023,12.79,-7.67,-11.44,-2.57,-3.51,0.40,
7.024,12.49,-7.79,-12.41,-2.57,-3.51,0.40,
7.028,12.49,-7.79,-12.41,-2.72,-3.72,0.32,
7.029,12.36,-7.81,-13.11,-2.72,-3.72,0.32,
7.037,12.36,-7.81,-13.11,-2.92,-3.95,0.27,
7.038,12.57,-7.74,-13.32,-2.92,-3.95,0.27,
7.039,12.57,-7.74,-13.32,-3.17,-4.19,0.22,
7.039,13.06,-7.80,-13.16,-3.17,-4.19,0.22,
7.043,13.06,-7.80,-13.16,-3.43,-4.42,0.18,
7.043,13.72,-7.93,-12.78,-3.43,-4.42,0.18,
7.077,14.54,-8.09,-12.18,-3.43,-4.42,0.18,
7.077,14.54,-8.09,-12.18,-3.70,-4.66,0.13,
7.078,14.54,-8.09,-12.18,-3.98,-4.85,0.07,
7.078,15.35,-8.33,-11.42,-3.98,-4.85,0.07,
7.078,16.12,-8.69,-10.48,-3.98,-4.85,0.07,
7.079,16.12,-8.69,-10.48,-4.26,-5.01,0.00,
7.079,16.95,-9.11,-9.32,-4.26,-5.01,0.00,
7.08,16.95,-9.11,-9.32,-4.53,-5.13,-0.06,
7.08,17.80,-9.57,-8.11,-4.53,-5.13,-0.06,
7.08,17.80,-9.57,-8.11,-4.78,-5.21,-0.13,
7.081,18.67,-9.90,-6.86,-4.78,-5.21,-0.13,
7.081,18.67,-9.90,-6.86,-4.99,-5.26,-0.20,
7.082,19.56,-10.18,-5.54,-4.99,-5.26,-0.20,
7.082,19.56,-10.18,-5.54,-5.16,-5.29,-0.27,
7.083,20.25,-10.39,-4.22,-5.16,-5.29,-0.27,
7.083,20.25,-10.39,-4.22,-5.30,-5.31,-0.36,
7.087,20.74,-10.62,-2.94,-5.30,-5.31,-0.36,
7.087,20.74,-10.62,-2.94,-5.39,-5.33,-0.46,
7.092,20.99,-10.82,-1.70,-5.39,-5.33,-0.46,
7.092,20.99,-10.82,-1.70,-5.43,-5.35,-0.56,
7.103,20.99,-10.82,-1.70,-5.43,-5.39,-0.66,
7.104,21.08,-11.03,-0.62,-5.43,-5.39,-0.66,
7.104,21.10,-11.10,0.41,-5.43,-5.39,-0.66,
7.105,21.10,-11.10,0.41,-5.39,-5.43,-0.75,
7.106,21.12,-11.04,1.39,-5.39,-5.43,-0.75,
7.107,21.12,-11.04,1.39,-5.32,-5.48,-0.81,
7.111,21.12,-11.04,1.39,-5.22,-5.55,-0.86,
7.112,21.27,-10.77,2.50,-5.22,-5.55,-0.86,
7.126,21.49,-10.42,3.47,-5.22,-5.55,-0.86,
7.127,21.49,-10.42,3.47,-5.09,-5.61,-0.89,
7.128,21.49,-10.42,3.47,-4.93,-5.67,-0.92,
7.128,21.65,-10.04,4.13,-4.93,-5.67,-0.92,
7.129,21.65,-10.04,4.13,-4.76,-5.69,-0.94,
7.129,21.81,-9.73,4.45,-4.76,-5.69,-0.94,
7.131,22.11,-9.45,4.48,-4.76,-5.69,-0.94,
7.132,22.11,-9.45,4.48,-4.59,-5.67,-0.95,
7.14,22.11,-9.45,4.48,-4.43,-5.62,-0.98,
7.141,22.56,-9.09,4.32,-4.43,-5.62,-0.98,
7.141,22.91,-8.69,3.90,-4.43,-5.62,-0.98,
7.142,22.91,-8.69,3.90,-4.28,-5.56,-1.01,
