
time,ax,ay,az,wx,wy,wz,
0.002,-0.12,0.48,0.03,-0.39,-0.67,-0.07,
0.003,-0.12,0.48,0.03,-0.38,-0.58,-0.10,
0.003,-0.12,0.48,0.03,-0.36,-0.51,-0.12,
0.003,-0.14,0.50,0.07,-0.36,-0.51,-0.12,
0.012,-0.14,0.50,0.07,-0.34,-0.44,-0.15,
0.013,-0.26,0.47,-0.01,-0.34,-0.44,-0.15,
0.015,-0.40,0.45,-0.16,-0.34,-0.44,-0.15,
0.016,-0.40,0.45,-0.16,-0.32,-0.38,-0.17,
0.025,-0.40,0.45,-0.16,-0.31,-0.32,-0.18,
0.026,-0.54,0.46,-0.30,-0.31,-0.32,-0.18,
0.027,-0.83,0.50,-0.44,-0.31,-0.32,-0.18,
0.027,-0.83,0.50,-0.44,-0.30,-0.28,-0.19,
0.038,-0.83,0.50,-0.44,-0.29,-0.24,-0.18,
0.039,-1.08,0.53,-0.57,-0.29,-0.24,-0.18,
0.039,-1.30,0.63,-0.68,-0.29,-0.24,-0.18,
0.039,-1.30,0.63,-0.68,-0.28,-0.22,-0.17,
0.04,-1.39,0.68,-0.79,-0.28,-0.22,-0.17,
0.04,-1.39,0.68,-0.79,-0.27,-0.20,-0.13,
0.042,-1.39,0.68,-0.79,-0.26,-0.19,-0.09,
0.043,-1.45,0.75,-0.93,-0.26,-0.19,-0.09,
0.051,-1.45,0.81,-1.14,-0.26,-0.19,-0.09,
0.052,-1.45,0.81,-1.14,-0.25,-0.19,-0.05,
0.052,-1.45,0.81,-1.14,-0.23,-0.19,-0.01,
0.052,-1.40,0.89,-1.38,-0.23,-0.19,-0.01,
0.057,-1.37,0.99,-1.53,-0.23,-0.19,-0.01,
0.057,-1.37,0.99,-1.53,-0.23,-0.20,0.04,
0.064,-1.37,0.99,-1.53,-0.22,-0.23,0.08,
0.064,-1.39,1.12,-1.59,-0.22,-0.23,0.08,
0.066,-1.41,1.19,-1.61,-0.22,-0.23,0.08,
0.067,-1.41,1.19,-1.61,-0.21,-0.27,0.13,
0.071,-1.46,1.23,-1.58,-0.21,-0.27,0.13,
0.072,-1.46,1.23,-1.58,-0.19,-0.31,0.19,
0.076,-1.46,1.23,-1.58,-0.15,-0.35,0.26,
0.077,-1.44,1.35,-1.64,-0.15,-0.35,0.26,
0.082,-1.44,1.35,-1.64,-0.11,-0.39,0.32,
0.082,-1.42,1.45,-1.79,-0.11,-0.39,0.32,
0.086,-1.44,1.51,-1.98,-0.11,-0.39,0.32,
0.087,-1.44,1.51,-1.98,-0.07,-0.43,0.38,
0.091,-1.50,1.57,-2.24,-0.07,-0.43,0.38,
0.091,-1.50,1.57,-2.24,-0.03,-0.46,0.44,
0.104,-1.60,1.55,-2.50,-0.03,-0.46,0.44,
0.104,-1.60,1.55,-2.50,-0.01,-0.49,0.50,
0.105,-1.60,1.55,-2.50,0.01,-0.51,0.57,
0.105,-1.54,1.56,-2.61,0.01,-0.51,0.57,
0.106,-1.54,1.56,-2.61,0.03,-0.53,0.63,
0.106,-1.34,1.57,-2.70,0.03,-0.53,0.63,
0.112,-0.80,1.71,-2.68,0.03,-0.53,0.63,
0.113,-0.80,1.71,-2.68,0.04,-0.55,0.68,
0.117,-0.01,1.90,-2.64,0.04,-0.55,0.68,
0.125,-0.01,1.90,-2.64,0.05,-0.57,0.70,
0.126,-0.01,1.90,-2.64,0.06,-0.60,0.69,
0.126,0.84,2.12,-2.63,0.06,-0.60,0.69,
0.126,0.84,2.12,-2.63,0.06,-0.63,0.64,
0.127,1.54,2.27,-2.69,0.06,-0.63,0.64,
0.138,1.93,2.38,-2.78,0.06,-0.63,0.64,
0.139,1.93,2.38,-2.78,0.05,-0.64,0.55,
0.139,2.09,2.43,-2.82,0.05,-0.64,0.55,
0.14,2.09,2.43,-2.82,0.01,-0.63,0.45,
0.141,1.99,2.52,-2.91,0.01,-0.63,0.45,
0.142,1.99,2.52,-2.91,-0.04,-0.61,0.34,
0.146,1.99,2.52,-2.91,-0.10,-0.57,0.23,
0.147,1.67,2.48,-2.94,-0.10,-0.57,0.23,
0.15,1.22,2.44,-2.93,-0.10,-0.57,0.23,
0.151,1.22,2.44,-2.93,-0.18,-0.54,0.14,
0.155,0.80,2.30,-2.89,-0.18,-0.54,0.14,
0.156,0.80,2.30,-2.89,-0.26,-0.52,0.08,
0.159,0.48,2.16,-2.81,-0.26,-0.52,0.08,
0.16,0.48,2.16,-2.81,-0.34,-0.52,0.03,
0.165,0.32,1.99,-2.59,-0.34,-0.52,0.03,
0.165,0.32,1.99,-2.59,-0.42,-0.52,0.01,
0.17,0.21,1.86,-2.24,-0.42,-0.52,0.01,
0.171,0.21,1.86,-2.24,-0.49,-0.53,-0.01,
0.174,0.10,1.72,-1.77,-0.49,-0.53,-0.01,
0.175,0.10,1.72,-1.77,-0.55,-0.56,-0.02,
0.189,-0.06,1.65,-1.19,-0.55,-0.56,-0.02,
0.191,-0.06,1.65,-1.19,-0.59,-0.61,-0.02,
0.191,-0.06,1.65,-1.19,-0.60,-0.67,-0.02,
0.192,-0.25,1.56,-0.57,-0.60,-0.67,-0.02,
0.193,-0.38,1.46,-0.06,-0.60,-0.67,-0.02,
0.194,-0.38,1.46,-0.06,-0.59,-0.74,-0.01,
0.195,-0.52,1.34,0.48,-0.59,-0.74,-0.01,
0.195,-0.52,1.34,0.48,-0.55,-0.80,0.01,
0.198,-0.61,1.20,0.89,-0.55,-0.80,0.01,
0.199,-0.61,1.20,0.89,-0.48,-0.86,0.03,
0.221,-0.61,1.20,0.89,-0.40,-0.91,0.06,
0.222,-0.57,1.08,1.14,-0.40,-0.91,0.06,
0.223,-0.57,1.08,1.14,-0.33,-0.95,0.08,
0.223,-0.52,0.97,1.23,-0.33,-0.95,0.08,
0.224,-0.50,0.81,1.24,-0.33,-0.95,0.08,
0.224,-0.50,0.81,1.24,-0.26,-0.99,0.11,
0.225,-0.62,0.65,1.29,-0.26,-0.99,0.11,
0.225,-0.62,0.65,1.29,-0.22,-1.00,0.13,
0.226,-0.62,0.65,1.29,-0.18,-0.99,0.15,
0.226,-0.83,0.50,1.35,-0.18,-0.99,0.15,
0.232,-1.13,0.33,1.48,-0.18,-0.99,0.15,
0.233,-1.13,0.33,1.48,-0.16,-0.95,0.18,
0.234,-1.13,0.33,1.48,-0.13,-0.89,0.22,
0.234,-1.37,0.28,1.74,-0.13,-0.89,0.22,
0.238,-1.36,0.29,1.94,-0.13,-0.89,0.22,
0.239,-1.36,0.29,1.94,-0.10,-0.83,0.28,
0.242,-1.36,0.29,1.94,-0.06,-0.77,0.33,
0.243,-1.13,0.40,2.08,-0.06,-0.77,0.33,
0.248,-0.83,0.52,2.07,-0.06,-0.77,0.33,
0.249,-0.83,0.52,2.07,-0.01,-0.69,0.36,
0.252,-0.66,0.60,1.89,-0.01,-0.69,0.36,
0.253,-0.66,0.60,1.89,0.04,-0.62,0.37,
0.257,-0.69,0.68,1.62,0.04,-0.62,0.37,
0.257,-0.69,0.68,1.62,0.08,-0.57,0.36,
0.263,-0.90,0.68,1.23,0.08,-0.57,0.36,
0.264,-0.90,0.68,1.23,0.13,-0.54,0.35,
0.267,-1.22,0.82,0.74,0.13,-0.54,0.35,
0.268,-1.22,0.82,0.74,0.16,-0.54,0.34,
0.272,-1.39,0.91,0.19,0.16,-0.54,0.34,
0.272,-1.39,0.91,0.19,0.18,-0.56,0.34,
0.277,-1.39,0.91,0.19,0.19,-0.60,0.35,
0.277,-1.51,0.95,-0.31,0.19,-0.60,0.35,
0.282,-1.51,0.95,-0.31,0.18,-0.67,0.35,
0.283,-1.58,0.94,-0.76,0.18,-0.67,0.35,
0.287,-1.58,0.94,-0.76,0.15,-0.76,0.36,
0.287,-1.63,1.01,-0.94,0.15,-0.76,0.36,
0.292,-1.64,1.22,-1.07,0.15,-0.76,0.36,
0.292,-1.64,1.22,-1.07,0.13,-0.86,0.37,
0.307,-1.71,1.49,-1.12,0.13,-0.86,0.37,
0.308,-1.71,1.49,-1.12,0.11,-0.99,0.37,
0.308,-1.71,1.49,-1.12,0.08,-1.11,0.37,
0.309,-1.87,1.75,-1.07,0.08,-1.11,0.37,
0.309,-2.04,1.96,-1.01,0.08,-1.11,0.37,
0.31,-2.04,1.96,-1.01,0.07,-1.24,0.37,
0.314,-2.19,2.08,-0.85,0.07,-1.24,0.37,
0.315,-2.19,2.08,-0.85,0.06,-1.37,0.37,
0.318,-2.19,2.08,-0.85,0.06,-1.50,0.38,
0.319,-2.38,2.14,-0.64,0.06,-1.50,0.38,
0.321,-2.38,2.14,-0.64,0.08,-1.64,0.38,
0.322,-2.65,2.25,-0.41,0.08,-1.64,0.38,
0.326,-2.98,2.31,-0.17,0.08,-1.64,0.38,
0.327,-2.98,2.31,-0.17,0.11,-1.79,0.40,
0.34,-3.41,2.48,0.18,0.11,-1.79,0.40,
0.341,-3.41,2.48,0.18,0.17,-1.96,0.42,
0.341,-3.41,2.48,0.18,0.26,-2.14,0.46,
0.342,-3.82,2.69,0.44,0.26,-2.14,0.46,
0.342,-4.31,2.90,0.57,0.26,-2.14,0.46,
0.343,-4.31,2.90,0.57,0.38,-2.36,0.50,
0.352,-4.76,3.12,0.52,0.38,-2.36,0.50,
0.353,-4.76,3.12,0.52,0.52,-2.61,0.55,
0.354,-5.10,3.32,0.33,0.52,-2.61,0.55,
0.354,-5.10,3.32,0.33,0.66,-2.88,0.62,
0.355,-5.22,3.57,-0.03,0.66,-2.88,0.62,
0.355,-5.22,3.57,-0.03,0.80,-3.15,0.68,
0.36,-5.22,3.57,-0.03,0.92,-3.40,0.75,
0.403,-5.27,3.83,-0.42,0.92,-3.40,0.75,
0.404,-5.27,3.83,-0.42,1.00,-3.62,0.82,
0.404,-5.33,4.02,-0.95,1.00,-3.62,0.82,
0.405,-5.45,4.14,-1.64,1.00,-3.62,0.82,
0.405,-5.45,4.14,-1.64,1.06,-3.84,0.88,
0.406,-5.58,4.23,-2.21,1.06,-3.84,0.88,
0.406,-5.58,4.23,-2.21,1.09,-4.05,0.94,
0.407,-5.79,4.27,-2.52,1.09,-4.05,0.94,
0.408,-5.79,4.27,-2.52,1.08,-4.24,1.00,
0.408,-5.79,4.27,-2.52,1.06,-4.43,1.07,
0.409,-5.92,4.20,-2.47,1.06,-4.43,1.07,
0.409,-6.00,4.05,-2.14,1.06,-4.43,1.07,
0.41,-6.00,4.05,-2.14,1.03,-4.61,1.13,
0.41,-6.00,4.05,-2.14,1.02,-4.79,1.20,
0.411,-6.16,3.80,-1.66,1.02,-4.79,1.20,
0.411,-6.16,3.80,-1.66,1.05,-4.99,1.28,
0.412,-6.53,3.47,-1.04,1.05,-4.99,1.28,
0.412,-7.07,3.15,-0.43,1.05,-4.99,1.28,
0.413,-7.07,3.15,-0.43,1.12,-5.21,1.37,
0.413,-7.07,3.15,-0.43,1.25,-5.46,1.48,
0.414,-7.59,2.86,0.02,1.25,-5.46,1.48,
0.414,-8.19,2.63,0.35,1.25,-5.46,1.48,
0.415,-8.19,2.63,0.35,1.40,-5.71,1.63,
0.454,-8.19,2.63,0.35,1.57,-5.94,1.79,
0.455,-8.53,2.45,0.47,1.57,-5.94,1.79,
0.455,-8.37,2.43,0.46,1.57,-5.94,1.79,
0.456,-8.37,2.43,0.46,1.74,-6.16,1.96,
0.456,-6.91,2.16,0.76,1.74,-6.16,1.96,
0.456,-6.91,2.16,0.76,1.89,-6.38,2.11,
0.457,-6.91,2.16,0.76,2.01,-6.62,2.19,
0.457,-6.12,2.27,1.29,2.01,-6.62,2.19,
0.457,-5.97,2.90,1.52,2.01,-6.62,2.19,
0.458,-5.97,2.90,1.52,2.13,-6.81,2.19,
0.458,-5.97,2.90,1.52,2.23,-6.87,2.17,
0.459,-5.78,3.69,1.58,2.23,-6.87,2.17,
0.459,-5.25,4.27,1.52,2.23,-6.87,2.17,
0.461,-5.25,4.27,1.52,2.30,-6.81,2.13,
0.462,-5.25,4.27,1.52,2.31,-6.68,2.07,
0.463,-4.54,4.55,1.16,2.31,-6.68,2.07,
0.464,-4.54,4.55,1.16,2.24,-6.50,1.99,
0.464,-2.78,4.06,1.34,2.24,-6.50,1.99,
0.464,-1.16,3.31,1.89,2.24,-6.50,1.99,
0.465,-1.16,3.31,1.89,2.12,-6.35,1.84,
0.473,-1.16,3.31,1.89,1.98,-6.23,1.64,
0.473,-0.37,2.84,2.40,1.98,-6.23,1.64,
0.474,-0.37,2.58,2.77,1.98,-6.23,1.64,
0.474,-0.37,2.58,2.77,1.85,-6.10,1.41,
0.477,-0.37,2.58,2.77,1.74,-5.95,1.22,
0.477,-0.74,2.20,3.00,1.74,-5.95,1.22,
0.481,-0.74,2.20,3.00,1.63,-5.82,1.08,
0.482,-0.99,1.62,3.17,1.63,-5.82,1.08,
0.487,-0.93,0.88,3.35,1.63,-5.82,1.08,
0.487,-0.93,0.88,3.35,1.51,-5.74,1.00,
0.492,-0.93,0.88,3.35,1.37,-5.69,0.95,
0.492,-0.14,0.12,3.84,1.37,-5.69,0.95,
0.504,-0.14,0.12,3.84,1.23,-5.69,0.92,
0.505,0.98,-0.51,5.10,1.23,-5.69,0.92,
0.505,0.98,-0.51,5.10,1.10,-5.70,0.88,
0.505,1.20,-0.93,5.65,1.10,-5.70,0.88,
0.506,1.47,-1.04,6.74,1.10,-5.70,0.88,
0.507,1.47,-1.04,6.74,0.98,-5.62,0.86,
0.511,1.47,-1.04,6.74,0.87,-5.53,0.88,
0.511,1.75,-1.32,7.87,0.87,-5.53,0.88,
0.516,2.18,-1.85,8.87,0.87,-5.53,0.88,
0.516,2.18,-1.85,8.87,0.77,-5.40,0.95,
0.521,2.18,-1.85,8.87,0.68,-5.16,1.03,
0.522,2.44,-2.34,9.92,0.68,-5.16,1.03,
0.526,2.44,-2.34,9.92,0.60,-4.77,1.11,
0.526,2.12,-2.87,10.93,0.60,-4.77,1.11,
0.537,2.63,-2.97,12.61,0.60,-4.77,1.11,
0.538,2.63,-2.97,12.61,0.53,-4.22,1.18,
0.538,3.84,-2.96,14.66,0.53,-4.22,1.18,
0.538,3.84,-2.96,14.66,0.49,-3.67,1.27,
0.54,5.25,-3.26,16.39,0.49,-3.67,1.27,
0.541,5.25,-3.26,16.39,0.54,-3.22,1.36,
0.545,6.65,-3.60,17.68,0.54,-3.22,1.36,
0.546,6.65,-3.60,17.68,0.70,-2.88,1.42,
0.562,8.08,-3.81,18.45,0.70,-2.88,1.42,
0.562,8.08,-3.81,18.45,0.95,-2.64,1.42,
0.563,9.64,-3.82,18.64,0.95,-2.64,1.42,
0.563,9.64,-3.82,18.64,1.26,-2.47,1.35,
0.564,10.91,-3.72,18.45,1.26,-2.47,1.35,
0.564,10.91,-3.72,18.45,1.58,-2.37,1.21,
0.565,11.79,-3.54,18.11,1.58,-2.37,1.21,
0.565,11.79,-3.54,18.11,1.88,-2.29,1.00,
0.569,12.30,-3.36,17.72,1.88,-2.29,1.00,
0.57,12.30,-3.36,17.72,2.14,-2.20,0.75,
0.574,12.44,-3.19,17.27,2.14,-2.20,0.75,
0.575,12.44,-3.19,17.27,2.36,-2.10,0.45,
0.588,12.08,-3.12,16.55,2.36,-2.10,0.45,
0.589,12.08,-3.12,16.55,2.55,-1.99,0.12,
0.589,12.08,-3.12,16.55,2.69,-1.88,-0.21,
0.59,11.30,-3.30,15.70,2.69,-1.88,-0.21,
0.59,10.31,-3.66,14.75,2.69,-1.88,-0.21,
0.59,10.31,-3.66,14.75,2.79,-1.77,-0.52,
0.594,10.31,-3.66,14.75,2.83,-1.66,-0.79,
0.594,9.19,-4.21,13.84,2.83,-1.66,-0.79,
0.606,8.16,-4.89,13.20,2.83,-1.66,-0.79,
0.607,8.16,-4.89,13.20,2.80,-1.56,-0.99,
0.607,8.16,-4.89,13.20,2.74,-1.46,-1.13,
0.638,7.43,-5.59,13.01,2.74,-1.46,-1.13,
0.638,6.89,-6.24,13.13,2.74,-1.46,-1.13,
0.639,6.89,-6.24,13.13,2.68,-1.37,-1.21,
0.639,6.89,-6.24,13.13,2.62,-1.26,-1.24,
0.639,6.64,-6.82,13.58,2.62,-1.26,-1.24,
0.64,6.59,-7.36,14.10,2.62,-1.26,-1.24,
0.64,6.59,-7.36,14.10,2.60,-1.14,-1.24,
0.64,6.62,-7.81,14.63,2.60,-1.14,-1.24,
0.641,6.62,-7.81,14.63,2.63,-1.02,-1.21,
0.641,6.82,-8.21,15.01,2.63,-1.02,-1.21,
0.641,6.82,-8.21,15.01,2.70,-0.90,-1.17,
0.642,7.11,-8.57,15.22,2.70,-0.90,-1.17,
0.642,7.11,-8.57,15.22,2.81,-0.77,-1.12,
0.643,7.11,-8.57,15.22,2.93,-0.64,-1.06,
0.643,7.48,-8.93,15.33,2.93,-0.64,-1.06,
0.643,7.94,-9.26,15.25,2.93,-0.64,-1.06,
0.644,7.94,-9.26,15.25,3.07,-0.51,-1.00,
0.648,8.52,-9.58,15.05,3.07,-0.51,-1.00,
0.648,8.52,-9.58,15.05,3.21,-0.35,-0.92,
0.653,8.52,-9.58,15.05,3.34,-0.17,-0.85,
0.654,9.14,-9.84,14.84,3.34,-0.17,-0.85,
0.657,9.14,-9.84,14.84,3.48,0.04,-0.77,
0.658,9.80,-10.03,14.57,3.48,0.04,-0.77,
0.664,10.52,-10.08,14.27,3.48,0.04,-0.77,
0.665,10.52,-10.08,14.27,3.60,0.25,-0.70,
0.667,10.52,-10.08,14.27,3.72,0.47,-0.64,
0.668,11.29,-10.06,13.91,3.72,0.47,-0.64,
0.672,11.29,-10.06,13.91,3.83,0.67,-0.62,
0.672,12.18,-9.95,13.48,3.83,0.67,-0.62,
0.677,12.18,-9.95,13.48,3.93,0.86,-0.64,
0.677,13.09,-9.83,13.02,3.93,0.86,-0.64,
0.689,13.09,-9.83,13.02,4.01,1.02,-0.70,
0.689,14.05,-9.79,12.63,4.01,1.02,-0.70,
0.69,14.05,-9.79,12.63,4.09,1.18,-0.81,
0.691,14.99,-9.90,12.26,4.09,1.18,-0.81,
0.693,15.72,-10.20,11.90,4.09,1.18,-0.81,
0.693,15.72,-10.20,11.90,4.16,1.30,-0.97,
0.696,16.31,-10.61,11.73,4.16,1.30,-0.97,
0.697,16.31,-10.61,11.73,4.22,1.38,-1.15,
0.714,16.31,-10.61,11.73,4.29,1.43,-1.34,
0.715,16.80,-11.05,11.74,4.29,1.43,-1.34,
0.716,16.80,-11.05,11.74,4.38,1.43,-1.56,
0.716,17.16,-11.48,11.83,4.38,1.43,-1.56,
0.717,17.16,-11.48,11.83,4.48,1.40,-1.77,
0.718,17.41,-11.96,11.99,4.48,1.40,-1.77,
0.718,17.41,-11.96,11.99,4.61,1.36,-1.98,
0.719,17.60,-12.44,12.13,4.61,1.36,-1.98,
0.722,17.72,-13.00,12.25,4.61,1.36,-1.98,
0.723,17.72,-13.00,12.25,4.76,1.32,-2.19,
0.726,17.79,-13.59,12.25,4.76,1.32,-2.19,
0.726,17.79,-13.59,12.25,4.91,1.29,-2.39,
0.731,17.79,-13.59,12.25,5.08,1.28,-2.59,
0.733,17.90,-14.23,12.20,5.08,1.28,-2.59,
0.736,18.00,-14.85,12.05,5.08,1.28,-2.59,
0.736,18.00,-14.85,12.05,5.25,1.30,-2.78,
0.74,18.07,-15.57,11.80,5.25,1.30,-2.78,
0.741,18.07,-15.57,11.80,5.41,1.34,-2.98,
0.745,18.08,-16.37,11.35,5.41,1.34,-2.98,
0.746,18.08,-16.37,11.35,5.57,1.41,-3.17,
0.757,18.05,-17.25,10.76,5.57,1.41,-3.17,
0.758,18.05,-17.25,10.76,5.72,1.52,-3.36,
0.758,17.96,-18.14,10.09,5.72,1.52,-3.36,
0.759,17.96,-18.14,10.09,5.84,1.66,-3.53,
0.76,17.96,-18.14,10.09,5.94,1.82,-3.69,
0.76,17.86,-19.06,9.40,5.94,1.82,-3.69,
0.765,17.86,-19.06,9.40,6.03,2.00,-3.83,
0.766,17.76,-19.95,8.80,6.03,2.00,-3.83,
0.77,17.76,-19.95,8.80,6.10,2.18,-3.95,
0.771,17.65,-20.81,8.15,6.10,2.18,-3.95,
0.774,17.65,-20.81,8.15,6.15,2.36,-4.06,
0.775,17.53,-21.66,7.55,6.15,2.36,-4.06,
0.779,17.53,-21.66,7.55,6.21,2.54,-4.15,
0.78,17.31,-22.44,6.89,6.21,2.54,-4.15,
0.791,17.31,-22.44,6.89,6.25,2.71,-4.23,
0.792,17.04,-23.07,6.13,6.25,2.71,-4.23,
0.793,17.04,-23.07,6.13,6.27,2.86,-4.29,
0.793,16.79,-23.70,5.30,6.27,2.86,-4.29,
0.794,16.59,-24.18,4.44,6.27,2.86,-4.29,
0.795,16.59,-24.18,4.44,6.28,2.99,-4.34,
0.799,16.59,-24.18,4.44,6.26,3.10,-4.37,
0.801,16.56,-24.54,3.78,6.26,3.10,-4.37,
0.804,16.56,-24.54,3.78,6.22,3.16,-4.38,
0.805,16.59,-24.72,3.50,6.22,3.16,-4.38,
0.809,16.25,-25.36,2.69,6.22,3.16,-4.38,
0.809,16.25,-25.36,2.69,6.19,3.17,-4.40,
0.814,16.25,-25.36,2.69,6.14,3.20,-4.42,
0.816,16.01,-25.78,2.05,6.14,3.20,-4.42,
0.819,16.01,-25.78,2.05,6.06,3.23,-4.41,
0.819,15.90,-25.90,1.76,6.06,3.23,-4.41,
0.823,15.90,-25.90,1.76,5.97,3.25,-4.40,
0.824,15.69,-26.02,1.56,5.97,3.25,-4.40,
0.828,15.69,-26.02,1.56,5.88,3.26,-4.37,
0.828,15.59,-26.01,1.48,5.88,3.26,-4.37,
0.834,15.59,-26.01,1.48,5.80,3.28,-4.33,
0.835,15.65,-26.03,1.58,5.80,3.28,-4.33,
0.838,15.85,-26.04,1.67,5.80,3.28,-4.33,
0.84,15.85,-26.04,1.67,5.72,3.31,-4.30,
0.843,16.16,-26.04,1.71,5.72,3.31,-4.30,
0.843,16.16,-26.04,1.71,5.66,3.35,-4.28,
0.857,16.16,-26.04,1.71,5.61,3.38,-4.28,
0.901,16.52,-25.99,1.76,5.61,3.38,-4.28,
0.902,16.83,-26.00,1.76,5.61,3.38,-4.28,
0.902,16.83,-26.00,1.76,5.57,3.40,-4.31,
0.903,17.06,-26.04,1.96,5.57,3.40,-4.31,
0.903,17.06,-26.04,1.96,5.53,3.42,-4.35,
0.904,17.06,-26.04,1.96,5.52,3.42,-4.40,
0.904,17.23,-26.12,2.19,5.52,3.42,-4.40,
0.905,17.33,-26.23,2.33,5.52,3.42,-4.40,
0.906,17.33,-26.23,2.33,5.53,3.40,-4.47,
0.906,17.33,-26.23,2.33,5.56,3.37,-4.55,
0.907,17.21,-26.47,2.24,5.56,3.37,-4.55,
0.908,17.21,-26.47,2.24,5.61,3.32,-4.62,
0.908,16.81,-26.69,1.97,5.61,3.32,-4.62,
0.909,16.81,-26.69,1.97,5.66,3.26,-4.68,
0.909,16.24,-26.79,1.59,5.66,3.26,-4.68,
0.91,16.24,-26.79,1.59,5.69,3.18,-4.71,
0.91,15.63,-26.71,1.15,5.69,3.18,-4.71,
0.911,15.15,-26.48,0.72,5.69,3.18,-4.71,
0.912,15.15,-26.48,0.72,5.71,3.10,-4.73,
0.912,14.84,-26.26,0.32,5.71,3.10,-4.73,
0.913,14.84,-26.26,0.32,5.70,3.01,-4.72,
0.913,14.68,-25.98,-0.12,5.70,3.01,-4.72,
0.914,14.68,-25.98,-0.12,5.68,2.93,-4.70,
0.914,14.66,-25.63,-0.57,5.68,2.93,-4.70,
0.915,14.66,-25.63,-0.57,5.63,2.86,-4.68,
0.915,14.65,-25.24,-0.98,5.63,2.86,-4.68,
0.916,14.65,-25.24,-0.98,5.57,2.80,-4.67,
0.917,14.65,-25.24,-0.98,5.48,2.76,-4.66,
0.917,14.65,-24.87,-1.37,5.48,2.76,-4.66,
0.956,14.72,-24.56,-1.72,5.48,2.76,-4.66,
0.957,14.72,-24.56,-1.72,5.37,2.75,-4.65,
0.957,14.88,-24.27,-1.99,5.37,2.75,-4.65,
0.958,14.88,-24.27,-1.99,5.25,2.79,-4.65,
0.958,15.00,-24.03,-2.09,5.25,2.79,-4.65,
0.958,15.00,-24.03,-2.09,5.13,2.88,-4.66,
0.959,15.00,-24.03,-2.09,5.01,3.00,-4.67,
0.959,14.93,-23.88,-2.22,5.01,3.00,-4.67,
0.96,14.67,-23.80,-2.32,5.01,3.00,-4.67,
0.96,14.67,-23.80,-2.32,4.91,3.17,-4.67,
0.961,14.36,-23.69,-2.42,4.91,3.17,-4.67,
0.961,14.36,-23.69,-2.42,4.82,3.35,-4.67,
0.962,14.36,-23.69,-2.42,4.77,3.51,-4.64,
0.962,14.23,-23.49,-2.64,4.77,3.51,-4.64,
0.963,14.20,-23.22,-3.01,4.77,3.51,-4.64,
0.965,14.20,-23.22,-3.01,4.73,3.64,-4.60,
0.965,14.20,-23.22,-3.01,4.72,3.71,-4.56,
0.966,14.13,-23.07,-3.45,4.72,3.71,-4.56,
0.966,13.88,-23.05,-3.85,4.72,3.71,-4.56,
0.966,13.88,-23.05,-3.85,4.72,3.75,-4.52,
0.969,13.48,-23.04,-4.32,4.72,3.75,-4.52,
0.97,13.48,-23.04,-4.32,4.72,3.76,-4.49,
0.974,13.48,-23.04,-4.32,4.72,3.73,-4.44,
0.974,12.96,-22.97,-4.78,4.72,3.73,-4.44,
0.979,12.96,-22.97,-4.78,4.73,3.70,-4.38,
0.98,12.40,-22.96,-5.11,4.73,3.70,-4.38,
0.988,12.40,-22.96,-5.11,4.73,3.66,-4.30,
0.989,11.80,-22.90,-5.42,4.73,3.66,-4.30,
0.989,11.80,-22.90,-5.42,4.74,3.63,-4.20,
0.991,11.17,-22.86,-5.64,4.74,3.63,-4.20,
0.994,11.17,-22.86,-5.64,4.76,3.58,-4.08,
0.995,10.34,-22.80,-5.77,4.76,3.58,-4.08,
1.011,9.41,-22.77,-5.88,4.76,3.58,-4.08,
1.012,9.41,-22.77,-5.88,4.80,3.53,-3.95,
1.013,9.41,-22.77,-5.88,4.87,3.46,-3.79,
1.013,8.45,-22.66,-6.02,4.87,3.46,-3.79,
1.014,8.45,-22.66,-6.02,4.95,3.35,-3.60,
1.014,7.67,-22.52,-6.24,4.95,3.35,-3.60,
1.014,7.67,-22.52,-6.24,5.06,3.21,-3.40,
1.015,7.13,-22.45,-6.56,5.06,3.21,-3.40,
1.027,7.13,-22.45,-6.56,5.17,3.05,-3.19,
1.028,6.71,-22.44,-6.93,5.17,3.05,-3.19,
1.028,6.71,-22.44,-6.93,5.29,2.88,-2.98,
1.028,6.34,-22.32,-7.29,5.29,2.88,-2.98,
1.03,6.34,-22.32,-7.29,5.42,2.70,-2.78,
1.03,6.26,-22.05,-7.70,5.42,2.70,-2.78,
1.045,6.26,-22.05,-7.70,5.52,2.52,-2.59,
1.046,6.33,-21.78,-8.22,5.52,2.52,-2.59,
1.047,6.33,-21.78,-8.22,5.61,2.34,-2.43,
1.047,6.16,-21.65,-8.61,5.61,2.34,-2.43,
1.048,6.16,-21.65,-8.61,5.68,2.17,-2.30,
1.048,5.82,-21.57,-8.75,5.68,2.17,-2.30,
1.051,5.82,-21.57,-8.75,5.74,2.01,-2.16,
1.051,5.47,-21.52,-8.75,5.74,2.01,-2.16,
1.052,5.47,-21.52,-8.75,5.80,1.85,-2.04,
1.053,5.39,-21.26,-8.61,5.80,1.85,-2.04,
1.058,5.39,-21.26,-8.61,5.86,1.69,-1.93,
1.058,5.37,-20.72,-8.55,5.86,1.69,-1.93,
1.062,5.37,-20.72,-8.55,5.92,1.53,-1.86,
1.062,5.43,-19.97,-8.80,5.92,1.53,-1.86,
1.07,5.43,-19.97,-8.80,5.97,1.38,-1.83,
1.071,5.59,-19.30,-9.41,5.97,1.38,-1.83,
1.073,5.71,-18.74,-10.39,5.97,1.38,-1.83,
1.073,5.71,-18.74,-10.39,5.99,1.23,-1.85,
1.077,5.71,-18.74,-10.39,5.96,1.09,-1.91,
1.077,4.80,-18.47,-10.62,5.96,1.09,-1.91,
1.088,3.77,-18.15,-11.18,5.96,1.09,-1.91,
1.089,3.77,-18.15,-11.18,5.91,0.96,-1.95,
1.089,3.77,-18.15,-11.18,5.81,0.84,-1.98,
1.09,4.15,-17.85,-13.17,5.81,0.84,-1.98,
1.091,4.02,-17.60,-14.78,5.81,0.84,-1.98,
1.12,4.02,-17.60,-14.78,5.62,0.70,-2.03,
1.121,3.29,-17.25,-15.18,5.62,0.70,-2.03,
1.121,3.29,-17.25,-15.18,5.34,0.56,-2.11,
1.121,3.29,-17.25,-15.18,5.04,0.43,-2.17,
1.122,2.24,-16.92,-14.79,5.04,0.43,-2.17,
1.122,1.28,-16.56,-14.28,5.04,0.43,-2.17,
1.122,1.28,-16.56,-14.28,4.76,0.32,-2.21,
1.123,0.77,-16.17,-14.18,4.76,0.32,-2.21,
1.123,0.77,-16.17,-14.18,4.50,0.21,-2.22,
1.124,0.12,-15.77,-14.09,4.50,0.21,-2.22,
1.124,0.12,-15.77,-14.09,4.25,0.13,-2.22,
1.124,-0.69,-15.30,-13.80,4.25,0.13,-2.22,
1.125,-0.69,-15.30,-13.80,4.00,0.07,-2.24,
1.125,-1.52,-14.89,-13.42,4.00,0.07,-2.24,
1.126,-1.52,-14.89,-13.42,3.77,0.02,-2.25,
1.131,-2.42,-14.50,-13.10,3.77,0.02,-2.25,
1.132,-2.42,-14.50,-13.10,3.54,-0.03,-2.24,
1.135,-3.31,-14.16,-12.96,3.54,-0.03,-2.24,
1.136,-3.31,-14.16,-12.96,3.33,-0.07,-2.23,
1.14,-4.22,-13.80,-12.79,3.33,-0.07,-2.23,
1.14,-4.22,-13.80,-12.79,3.11,-0.12,-2.21,
1.145,-5.00,-13.45,-12.61,3.11,-0.12,-2.21,
1.145,-5.00,-13.45,-12.61,2.90,-0.16,-2.17,
1.15,-5.00,-13.45,-12.61,2.68,-0.20,-2.12,
1.151,-5.83,-13.20,-12.39,2.68,-0.20,-2.12,
1.155,-6.63,-12.95,-12.11,2.68,-0.20,-2.12,
1.156,-6.63,-12.95,-12.11,2.46,-0.23,-2.05,
1.159,-7.45,-12.62,-11.83,2.46,-0.23,-2.05,
1.16,-7.45,-12.62,-11.83,2.25,-0.23,-1.97,
1.165,-7.45,-12.62,-11.83,2.04,-0.24,-1.87,
1.166,-8.20,-12.14,-11.50,2.04,-0.24,-1.87,
1.169,-8.20,-12.14,-11.50,1.84,-0.26,-1.76,
1.17,-8.76,-11.76,-11.19,1.84,-0.26,-1.76,
1.174,-8.76,-11.76,-11.19,1.65,-0.28,-1.66,
1.175,-9.31,-11.45,-10.96,1.65,-0.28,-1.66,
1.179,-9.31,-11.45,-10.96,1.47,-0.30,-1.55,
1.179,-9.85,-11.16,-10.65,1.47,-0.30,-1.55,
1.185,-10.43,-10.95,-10.26,1.47,-0.30,-1.55,
1.186,-10.43,-10.95,-10.26,1.29,-0.33,-1.44,
1.189,-10.43,-10.95,-10.26,1.13,-0.36,-1.32,
1.19,-10.89,-10.78,-9.81,1.13,-0.36,-1.32,
1.194,-10.89,-10.78,-9.81,0.99,-0.41,-1.18,
1.195,-11.33,-10.59,-9.34,0.99,-0.41,-1.18,
1.21,-11.33,-10.59,-9.34,0.87,-0.47,-1.04,
1.211,-11.71,-10.40,-8.81,0.87,-0.47,-1.04,
1.212,-12.10,-10.25,-8.22,0.87,-0.47,-1.04,
1.213,-12.10,-10.25,-8.22,0.77,-0.54,-0.90,
1.214,-12.43,-10.12,-7.65,0.77,-0.54,-0.90,
1.214,-12.43,-10.12,-7.65,0.69,-0.63,-0.74,
1.218,-12.43,-10.12,-7.65,0.63,-0.74,-0.58,
1.219,-12.63,-9.99,-7.11,0.63,-0.74,-0.58,
1.239,-12.63,-9.99,-7.11,0.58,-0.87,-0.41,
1.241,-12.69,-9.88,-6.69,0.58,-0.87,-0.41,
1.241,-12.69,-9.88,-6.69,0.56,-1.01,-0.23,
1.242,-12.70,-9.73,-6.15,0.56,-1.01,-0.23,
1.242,-12.70,-9.73,-6.15,0.55,-1.17,-0.06,
1.243,-12.51,-9.66,-5.63,0.55,-1.17,-0.06,
1.244,-12.51,-9.66,-5.63,0.57,-1.34,0.11,
1.244,-12.27,-9.70,-5.00,0.57,-1.34,0.11,
1.244,-12.27,-9.70,-5.00,0.61,-1.49,0.28,
1.245,-12.13,-9.68,-4.33,0.61,-1.49,0.28,
1.245,-12.13,-9.68,-4.33,0.68,-1.61,0.46,
1.246,-11.92,-9.65,-3.73,0.68,-1.61,0.46,
1.251,-11.60,-9.57,-3.34,0.68,-1.61,0.46,
1.252,-11.60,-9.57,-3.34,0.78,-1.74,0.64,
1.254,-11.60,-9.57,-3.34,0.89,-1.88,0.81,
1.255,-11.15,-9.47,-3.12,0.89,-1.88,0.81,
1.257,-10.64,-9.44,-3.12,0.89,-1.88,0.81,
1.258,-10.64,-9.44,-3.12,1.02,-2.03,0.98,
1.262,-10.03,-9.43,-3.29,1.02,-2.03,0.98,
1.263,-10.03,-9.43,-3.29,1.15,-2.17,1.14,
1.267,-9.50,-9.37,-3.65,1.15,-2.17,1.14,
1.268,-9.50,-9.37,-3.65,1.27,-2.31,1.30,
1.272,-8.95,-9.32,-4.08,1.27,-2.31,1.30,
1.272,-8.95,-9.32,-4.08,1.36,-2.43,1.44,
1.277,-8.31,-9.39,-4.53,1.36,-2.43,1.44,
1.277,-8.31,-9.39,-4.53,1.43,-2.54,1.59,
1.29,-8.31,-9.39,-4.53,1.47,-2.64,1.72,
1.29,-7.54,-9.47,-4.90,1.47,-2.64,1.72,
1.291,-7.54,-9.47,-4.90,1.49,-2.73,1.85,
1.291,-6.78,-9.49,-5.20,1.49,-2.73,1.85,
1.293,-6.02,-9.54,-5.44,1.49,-2.73,1.85,
1.293,-6.02,-9.54,-5.44,1.49,-2.80,1.98,
1.296,-6.02,-9.54,-5.44,1.48,-2.84,2.08,
1.297,-5.19,-9.61,-5.67,1.48,-2.84,2.08,
1.311,-5.19,-9.61,-5.67,1.45,-2.86,2.18,
1.312,-4.32,-9.79,-5.91,1.45,-2.86,2.18,
1.312,-4.32,-9.79,-5.91,1.41,-2.86,2.26,
1.312,-3.37,-10.09,-6.14,1.41,-2.86,2.26,
1.313,-2.38,-10.56,-6.43,1.41,-2.86,2.26,
1.313,-2.38,-10.56,-6.43,1.36,-2.85,2.33,
1.32,-2.38,-10.56,-6.43,1.32,-2.81,2.38,
1.321,-1.48,-11.20,-6.72,1.32,-2.81,2.38,
1.321,-0.79,-11.91,-6.97,1.32,-2.81,2.38,
1.322,-0.79,-11.91,-6.97,1.26,-2.75,2.44,
1.325,-0.34,-12.56,-7.17,1.26,-2.75,2.44,
1.326,-0.34,-12.56,-7.17,1.20,-2.67,2.50,
1.33,-0.34,-12.56,-7.17,1.12,-2.57,2.57,
1.331,0.17,-13.14,-7.46,1.12,-2.57,2.57,
1.335,0.17,-13.14,-7.46,1.03,-2.45,2.66,
1.374,0.84,-13.69,-7.98,1.03,-2.45,2.66,
1.374,0.84,-13.69,-7.98,0.92,-2.30,2.76,
1.375,1.61,-14.24,-8.66,0.92,-2.30,2.76,
1.375,1.61,-14.24,-8.66,0.76,-2.13,2.84,
1.376,2.21,-14.82,-9.42,0.76,-2.13,2.84,
1.376,2.65,-15.44,-10.10,0.76,-2.13,2.84,
1.377,2.65,-15.44,-10.10,0.56,-1.93,2.93,
1.377,2.99,-15.99,-10.80,0.56,-1.93,2.93,
1.378,2.99,-15.99,-10.80,0.31,-1.70,3.02,
1.378,3.39,-16.44,-11.28,0.31,-1.70,3.02,
1.379,3.39,-16.44,-11.28,-0.01,-1.47,3.12,
1.38,3.80,-16.80,-11.32,-0.01,-1.47,3.12,
1.38,3.80,-16.80,-11.32,-0.38,-1.24,3.23,
1.381,3.80,-16.80,-11.32,-0.79,-1.00,3.34,
1.381,3.94,-17.14,-10.93,-0.79,-1.00,3.34,
1.382,3.92,-17.48,-10.08,-0.79,-1.00,3.34,
1.382,3.92,-17.48,-10.08,-1.20,-0.76,3.45,
1.383,3.78,-17.83,-8.97,-1.20,-0.76,3.45,
1.383,3.78,-17.83,-8.97,-1.60,-0.56,3.58,
1.384,3.89,-18.12,-7.44,-1.60,-0.56,3.58,
1.384,3.89,-18.12,-7.44,-1.95,-0.43,3.74,
1.42,4.17,-18.39,-5.61,-1.95,-0.43,3.74,
1.421,4.17,-18.39,-5.61,-2.22,-0.40,3.91,
1.422,4.72,-18.68,-3.71,-2.22,-0.40,3.91,
1.423,4.72,-18.68,-3.71,-2.40,-0.46,4.08,
1.423,5.57,-18.93,-1.75,-2.40,-0.46,4.08,
1.423,5.57,-18.93,-1.75,-2.46,-0.60,4.24,
1.424,6.58,-19.09,-0.09,-2.46,-0.60,4.24,
1.424,6.58,-19.09,-0.09,-2.40,-0.78,4.36,
1.425,7.48,-19.13,1.18,-2.40,-0.78,4.36,
1.425,7.48,-19.13,1.18,-2.23,-0.98,4.45,
1.425,7.48,-19.13,1.18,-1.95,-1.20,4.50,
1.426,8.20,-19.22,2.03,-1.95,-1.20,4.50,
1.426,8.20,-19.22,2.03,-1.61,-1.42,4.52,
1.426,8.67,-19.43,2.39,-1.61,-1.42,4.52,
1.427,8.67,-19.43,2.39,-1.21,-1.64,4.54,
1.427,8.83,-19.57,2.46,-1.21,-1.64,4.54,
1.427,8.83,-19.57,2.46,-0.80,-1.86,4.57,
1.428,8.75,-19.52,2.19,-0.80,-1.86,4.57,
1.433,8.75,-19.52,2.19,-0.38,-2.06,4.63,
1.434,8.78,-19.33,1.49,-0.38,-2.06,4.63,
1.438,9.02,-19.25,0.46,-0.38,-2.06,4.63,
1.439,9.02,-19.25,0.46,-0.01,-2.26,4.69,
1.442,9.02,-19.25,0.46,0.31,-2.43,4.75,
1.443,9.37,-19.35,-0.64,0.31,-2.43,4.75,
1.447,9.37,-19.35,-0.64,0.57,-2.58,4.82,
1.448,9.71,-19.49,-1.78,0.57,-2.58,4.82,
1.456,9.94,-19.53,-2.96,0.57,-2.58,4.82,
1.457,9.94,-19.53,-2.96,0.77,-2.69,4.89,
1.459,9.94,-19.53,-2.96,0.91,-2.79,4.97,
1.459,10.17,-19.55,-4.05,0.91,-2.79,4.97,
1.463,10.17,-19.55,-4.05,0.99,-2.85,5.07,
1.463,10.39,-19.57,-5.12,0.99,-2.85,5.07,
1.478,10.39,-19.57,-5.12,1.02,-2.91,5.19,
1.479,10.73,-19.68,-6.14,1.02,-2.91,5.19,
1.479,10.73,-19.68,-6.14,1.00,-2.95,5.32,
1.48,11.05,-19.78,-6.92,1.00,-2.95,5.32,
1.48,11.05,-19.78,-6.92,0.92,-2.97,5.46,
1.481,11.43,-19.93,-7.56,0.92,-2.97,5.46,
1.481,11.43,-19.93,-7.56,0.81,-2.96,5.62,
1.482,11.90,-20.11,-7.92,0.81,-2.96,5.62,
1.498,12.67,-20.29,-7.94,0.81,-2.96,5.62,
1.5,12.67,-20.29,-7.94,0.69,-2.93,5.78,
1.5,12.67,-20.29,-7.94,0.56,-2.89,5.95,
1.501,13.70,-20.33,-7.78,0.56,-2.89,5.95,
1.501,14.48,-20.71,-7.67,0.56,-2.89,5.95,
1.502,14.48,-20.71,-7.67,0.43,-2.85,6.10,
1.502,14.48,-20.71,-7.67,0.32,-2.78,6.24,
1.502,15.69,-21.02,-7.55,0.32,-2.78,6.24,
1.506,16.94,-21.12,-7.26,0.32,-2.78,6.24,
1.506,16.94,-21.12,-7.26,0.22,-2.69,6.36,
1.511,17.89,-21.18,-6.94,0.22,-2.69,6.36,
1.511,17.89,-21.18,-6.94,0.13,-2.59,6.46,
1.516,18.56,-21.31,-6.57,0.13,-2.59,6.46,
1.517,18.56,-21.31,-6.57,0.07,-2.48,6.54,
1.521,19.25,-21.44,-6.39,0.07,-2.48,6.54,
1.522,19.25,-21.44,-6.39,0.04,-2.38,6.63,
1.525,19.25,-21.44,-6.39,0.02,-2.30,6.73,
1.526,20.05,-21.61,-6.41,0.02,-2.30,6.73,
1.53,20.05,-21.61,-6.41,0.01,-2.25,6.83,
1.53,20.94,-21.71,-6.53,0.01,-2.25,6.83,
1.538,20.94,-21.71,-6.53,0.00,-2.23,6.93,
1.539,21.98,-21.76,-6.69,0.00,-2.23,6.93,
1.541,23.04,-21.75,-6.82,0.00,-2.23,6.93,
1.542,23.04,-21.75,-6.82,-0.00,-2.23,7.02,
1.545,24.03,-21.64,-6.98,-0.00,-2.23,7.02,
1.545,24.03,-21.64,-6.98,-0.00,-2.24,7.09,
1.557,24.03,-21.64,-6.98,-0.00,-2.28,7.15,
1.558,24.93,-21.47,-7.06,-0.00,-2.28,7.15,
1.559,25.79,-21.33,-7.17,-0.00,-2.28,7.15,
1.559,25.79,-21.33,-7.17,-0.01,-2.32,7.19,
1.56,25.79,-21.33,-7.17,-0.02,-2.37,7.23,
1.56,26.62,-21.27,-7.21,-0.02,-2.37,7.23,
1.564,26.62,-21.27,-7.21,-0.03,-2.43,7.27,
1.565,27.50,-21.23,-7.30,-0.03,-2.43,7.27,
1.57,28.46,-21.16,-7.37,-0.03,-2.43,7.27,
1.571,28.46,-21.16,-7.37,-0.05,-2.49,7.30,
1.574,29.22,-21.05,-7.49,-0.05,-2.49,7.30,
1.575,29.22,-21.05,-7.49,-0.08,-2.54,7.32,
1.579,29.84,-20.95,-7.61,-0.08,-2.54,7.32,
1.614,29.84,-20.95,-7.61,-0.12,-2.57,7.31,
1.614,29.84,-20.95,-7.61,-0.18,-2.56,7.30,
1.615,30.23,-20.90,-7.81,-0.18,-2.56,7.30,
1.615,30.23,-20.90,-7.81,-0.27,-2.54,7.29,
1.616,30.38,-20.92,-7.95,-0.27,-2.54,7.29,
1.616,30.38,-20.92,-7.95,-0.38,-2.48,7.30,
1.617,30.64,-21.02,-8.02,-0.38,-2.48,7.30,
1.617,30.64,-21.02,-8.02,-0.51,-2.41,7.31,
1.618,31.06,-21.08,-8.02,-0.51,-2.41,7.31,
1.618,31.06,-21.08,-8.02,-0.64,-2.31,7.32,
1.619,31.53,-21.16,-8.14,-0.64,-2.31,7.32,
1.619,31.53,-21.16,-8.14,-0.78,-2.21,7.33,
1.62,32.04,-21.29,-8.25,-0.78,-2.21,7.33,
1.62,32.04,-21.29,-8.25,-0.92,-2.11,7.33,
1.621,32.80,-21.39,-8.85,-0.92,-2.11,7.33,
1.621,32.80,-21.39,-8.85,-1.09,-2.01,7.31,
1.622,33.68,-21.42,-9.45,-1.09,-2.01,7.31,
1.626,33.68,-21.42,-9.45,-1.29,-1.92,7.27,
1.626,34.16,-21.51,-10.17,-1.29,-1.92,7.27,
1.629,34.31,-21.64,-10.75,-1.29,-1.92,7.27,
1.63,34.31,-21.64,-10.75,-1.55,-1.85,7.21,
1.634,34.34,-21.89,-10.89,-1.55,-1.85,7.21,
1.635,34.34,-21.89,-10.89,-1.84,-1.78,7.14,
1.638,34.28,-22.35,-10.79,-1.84,-1.78,7.14,
1.638,34.28,-22.35,-10.79,-2.14,-1.75,7.07,
1.642,34.08,-22.87,-10.61,-2.14,-1.75,7.07,
1.643,34.08,-22.87,-10.61,-2.44,-1.76,7.01,
1.647,33.80,-23.41,-10.37,-2.44,-1.76,7.01,
1.648,33.80,-23.41,-10.37,-2.74,-1.83,6.99,
1.655,33.64,-23.91,-9.86,-2.74,-1.83,6.99,
1.656,33.64,-23.91,-9.86,-3.03,-1.94,7.00,
1.658,33.64,-23.91,-9.86,-3.30,-2.09,7.03,
1.658,33.69,-24.50,-9.29,-3.30,-2.09,7.03,
1.662,33.69,-24.50,-9.29,-3.54,-2.27,7.08,
1.663,33.87,-25.21,-8.86,-3.54,-2.27,7.08,
1.677,33.87,-25.21,-8.86,-3.76,-2.42,7.16,
1.678,34.26,-25.93,-8.18,-3.76,-2.42,7.16,
1.679,34.26,-25.93,-8.18,-3.96,-2.55,7.27,
1.679,34.96,-26.59,-7.28,-3.96,-2.55,7.27,
1.679,34.96,-26.59,-7.28,-4.13,-2.64,7.37,
1.68,35.85,-27.09,-6.17,-4.13,-2.64,7.37,
1.682,36.79,-27.47,-4.92,-4.13,-2.64,7.37,
1.683,36.79,-27.47,-4.92,-4.26,-2.70,7.47,
1.686,37.70,-27.70,-3.83,-4.26,-2.70,7.47,
1.688,37.70,-27.70,-3.83,-4.34,-2.73,7.57,
1.691,38.56,-27.80,-2.98,-4.34,-2.73,7.57,
1.692,38.56,-27.80,-2.98,-4.37,-2.75,7.64,
1.696,39.19,-27.69,-1.96,-4.37,-2.75,7.64,
1.697,39.19,-27.69,-1.96,-4.38,-2.73,7.69,
1.701,39.19,-27.69,-1.96,-4.37,-2.69,7.71,
1.702,39.67,-27.42,-1.10,-4.37,-2.69,7.71,
1.706,39.67,-27.42,-1.10,-4.34,-2.65,7.72,
1.707,40.14,-27.18,-0.63,-4.34,-2.65,7.72,
1.711,40.14,-27.18,-0.63,-4.29,-2.61,7.71,
1.711,40.84,-26.91,-0.09,-4.29,-2.61,7.71,
1.723,40.84,-26.91,-0.09,-4.22,-2.62,7.69,
1.724,41.52,-26.65,0.45,-4.22,-2.62,7.69,
1.724,41.57,-26.33,0.82,-4.22,-2.62,7.69,
1.725,41.57,-26.33,0.82,-4.13,-2.67,7.64,
1.727,41.45,-25.93,1.01,-4.13,-2.67,7.64,
1.727,41.45,-25.93,1.01,-4.02,-2.74,7.59,
1.731,41.33,-25.55,1.16,-4.02,-2.74,7.59,
1.732,41.33,-25.55,1.16,-3.90,-2.77,7.53,
1.746,41.33,-25.55,1.16,-3.79,-2.78,7.46,
1.747,41.20,-25.02,1.26,-3.79,-2.78,7.46,
1.748,41.20,-25.02,1.26,-3.68,-2.80,7.39,
1.749,41.06,-24.31,1.22,-3.68,-2.80,7.39,
1.75,40.92,-23.59,1.35,-3.68,-2.80,7.39,
1.75,40.92,-23.59,1.35,-3.60,-2.81,7.31,
1.751,40.78,-22.93,1.34,-3.60,-2.81,7.31,
1.752,40.78,-22.93,1.34,-3.54,-2.82,7.22,
1.755,40.78,-22.93,1.34,-3.49,-2.84,7.12,
1.756,40.63,-22.31,1.23,-3.49,-2.84,7.12,
1.76,40.63,-22.31,1.23,-3.47,-2.84,7.00,
1.761,40.48,-21.83,1.34,-3.47,-2.84,7.00,
1.764,40.32,-21.44,1.59,-3.47,-2.84,7.00,
1.765,40.32,-21.44,1.59,-3.46,-2.83,6.86,
1.769,40.17,-21.09,2.09,-3.46,-2.83,6.86,
1.771,40.17,-21.09,2.09,-3.46,-2.83,6.74,
1.774,40.01,-20.74,2.90,-3.46,-2.83,6.74,
1.774,40.01,-20.74,2.90,-3.45,-2.80,6.63,
1.779,39.84,-20.39,3.64,-3.45,-2.80,6.63,
1.779,39.84,-20.39,3.64,-3.41,-2.78,6.55,
1.784,39.84,-20.39,3.64,-3.33,-2.77,6.51,
1.785,39.68,-20.08,4.04,-3.33,-2.77,6.51,
1.789,39.51,-19.75,4.39,-3.33,-2.77,6.51,
1.79,39.51,-19.75,4.39,-3.25,-2.76,6.46,
1.794,39.51,-19.75,4.39,-3.16,-2.73,6.41,
1.794,39.33,-19.36,4.85,-3.16,-2.73,6.41,
1.799,39.33,-19.36,4.85,-3.07,-2.71,6.33,
1.799,39.16,-18.99,5.16,-3.07,-2.71,6.33,
1.804,39.16,-18.99,5.16,-2.98,-2.67,6.22,
1.805,38.98,-18.57,5.25,-2.98,-2.67,6.22,
1.809,38.80,-18.15,5.44,-2.98,-2.67,6.22,
1.809,38.80,-18.15,5.44,-2.92,-2.58,6.08,
1.813,38.80,-18.15,5.44,-2.88,-2.46,5.94,
1.814,38.62,-17.80,5.62,-2.88,-2.46,5.94,
1.818,38.62,-17.80,5.62,-2.85,-2.32,5.80,
1.819,38.44,-17.52,5.67,-2.85,-2.32,5.80,
1.823,38.26,-17.45,5.70,-2.85,-2.32,5.80,
1.866,38.26,-17.45,5.70,-2.85,-2.17,5.66,
1.867,38.07,-17.41,5.74,-2.85,-2.17,5.66,
1.867,38.07,-17.41,5.74,-2.86,-2.06,5.54,
1.868,38.07,-17.41,5.74,-2.87,-2.01,5.44,
1.868,37.89,-17.27,6.06,-2.87,-2.01,5.44,
1.869,37.89,-17.27,6.06,-2.85,-2.03,5.35,
1.87,37.71,-17.19,6.39,-2.85,-2.03,5.35,
1.871,37.53,-17.19,6.54,-2.85,-2.03,5.35,
1.871,37.53,-17.19,6.54,-2.82,-2.12,5.26,
1.872,37.36,-17.33,6.60,-2.82,-2.12,5.26,
1.872,37.36,-17.33,6.60,-2.76,-2.22,5.19,
1.873,37.19,-17.52,6.65,-2.76,-2.22,5.19,
1.874,37.19,-17.52,6.65,-2.69,-2.30,5.14,
1.874,37.02,-17.65,6.47,-2.69,-2.30,5.14,
1.875,37.02,-17.65,6.47,-2.62,-2.35,5.09,
1.875,36.86,-17.71,6.16,-2.62,-2.35,5.09,
1.876,36.86,-17.71,6.16,-2.57,-2.39,5.05,
1.877,36.70,-17.91,5.74,-2.57,-2.39,5.05,
1.878,36.70,-17.91,5.74,-2.52,-2.39,5.02,
1.878,36.53,-18.23,4.84,-2.52,-2.39,5.02,
1.879,36.53,-18.23,4.84,-2.52,-2.37,5.00,
1.879,36.37,-18.55,3.73,-2.52,-2.37,5.00,
1.88,36.37,-18.55,3.73,-2.57,-2.35,5.01,
1.919,36.20,-18.92,2.74,-2.57,-2.35,5.01,
1.92,36.20,-18.92,2.74,-2.71,-2.30,5.03,
1.92,36.03,-19.40,1.84,-2.71,-2.30,5.03,
1.921,36.03,-19.40,1.84,-2.95,-2.23,5.06,
1.921,35.86,-20.13,1.36,-2.95,-2.23,5.06,
1.922,35.86,-20.13,1.36,-3.27,-2.12,5.09,
1.922,35.68,-20.97,1.36,-3.27,-2.12,5.09,
1.923,35.68,-20.97,1.36,-3.66,-1.99,5.13,
1.923,35.50,-21.78,1.97,-3.66,-1.99,5.13,
1.924,35.50,-21.78,1.97,-4.09,-1.85,5.18,
1.926,35.50,-21.78,1.97,-4.53,-1.71,5.20,
1.926,35.31,-22.54,2.95,-4.53,-1.71,5.20,
1.927,35.12,-23.42,3.83,-4.53,-1.71,5.20,
1.927,35.12,-23.42,3.83,-4.95,-1.59,5.20,
1.928,34.93,-24.41,5.11,-4.95,-1.59,5.20,
1.928,34.93,-24.41,5.11,-5.34,-1.52,5.17,
1.929,34.74,-25.36,6.59,-5.34,-1.52,5.17,
1.929,34.74,-25.36,6.59,-5.69,-1.49,5.12,
1.929,34.56,-26.18,8.06,-5.69,-1.49,5.12,
1.93,34.56,-26.18,8.06,-5.97,-1.53,5.05,
1.933,34.37,-26.93,9.98,-5.97,-1.53,5.05,
1.934,34.37,-26.93,9.98,-6.17,-1.63,4.98,
1.935,34.20,-27.57,11.96,-6.17,-1.63,4.98,
1.936,34.20,-27.57,11.96,-6.26,-1.85,4.89,
1.945,34.03,-28.08,13.76,-6.26,-1.85,4.89,
1.946,34.03,-28.08,13.76,-6.22,-2.22,4.80,
1.947,34.03,-28.08,13.76,-6.06,-2.71,4.70,
1.947,33.87,-28.55,15.36,-6.06,-2.71,4.70,
1.951,33.73,-29.01,16.08,-6.06,-2.71,4.70,
1.952,33.73,-29.01,16.08,-5.80,-3.29,4.60,
1.977,33.73,-29.01,16.08,-5.49,-3.91,4.54,
1.978,33.59,-29.36,16.40,-5.49,-3.91,4.54,
1.979,33.59,-29.36,16.40,-5.17,-4.52,4.52,
1.98,33.47,-29.60,16.61,-5.17,-4.52,4.52,
1.98,33.35,-29.79,16.38,-5.17,-4.52,4.52,
1.981,33.35,-29.79,16.38,-4.85,-5.09,4.55,
1.981,33.25,-29.91,15.97,-4.85,-5.09,4.55,
1.982,33.25,-29.91,15.97,-4.56,-5.59,4.62,
1.982,33.25,-29.91,15.97,-4.32,-6.01,4.72,
1.983,33.14,-29.98,15.47,-4.32,-6.01,4.72,
1.983,33.05,-30.05,14.56,-4.32,-6.01,4.72,
1.984,33.05,-30.05,14.56,-4.13,-6.33,4.84,
1.985,32.95,-30.12,13.56,-4.13,-6.33,4.84,
1.986,32.95,-30.12,13.56,-4.01,-6.54,4.98,
1.989,32.86,-30.16,12.52,-4.01,-6.54,4.98,
1.989,32.86,-30.16,12.52,-3.97,-6.65,5.11,
1.996,32.77,-30.09,11.56,-3.97,-6.65,5.11,
1.997,32.77,-30.09,11.56,-4.02,-6.67,5.23,
1.999,32.77,-30.09,11.56,-4.14,-6.60,5.33,
1.999,32.69,-30.01,10.85,-4.14,-6.60,5.33,
2.015,32.69,-30.01,10.85,-4.33,-6.49,5.40,
2.016,32.60,-29.99,10.31,-4.33,-6.49,5.40,
2.017,32.60,-29.99,10.31,-4.57,-6.35,5.43,
2.017,32.52,-30.05,9.70,-4.57,-6.35,5.43,
2.018,32.52,-30.05,9.70,-4.85,-6.20,5.41,
2.018,32.45,-30.13,9.23,-4.85,-6.20,5.41,
2.019,32.45,-30.13,9.23,-5.17,-6.08,5.36,
2.019,32.38,-30.29,8.64,-5.17,-6.08,5.36,
2.023,32.38,-30.29,8.64,-5.51,-5.99,5.28,
2.024,32.31,-30.57,8.28,-5.51,-5.99,5.28,
2.028,32.31,-30.57,8.28,-5.87,-5.95,5.19,
2.028,32.25,-31.00,8.02,-5.87,-5.95,5.19,
2.032,32.25,-31.00,8.02,-6.22,-5.95,5.11,
2.033,32.19,-31.75,7.85,-6.22,-5.95,5.11,
2.038,32.15,-32.45,7.78,-6.22,-5.95,5.11,
2.039,32.15,-32.45,7.78,-6.55,-5.96,5.02,
2.042,32.15,-32.45,7.78,-6.87,-5.97,4.95,
2.043,32.10,-33.20,7.96,-6.87,-5.97,4.95,
2.047,32.10,-33.20,7.96,-7.18,-5.97,4.88,
2.047,32.06,-33.94,8.01,-7.18,-5.97,4.88,
2.057,32.03,-34.61,8.31,-7.18,-5.97,4.88,
2.058,32.03,-34.61,8.31,-7.48,-5.99,4.82,
2.058,32.03,-34.61,8.31,-7.76,-6.00,4.76,
2.059,32.00,-35.24,8.61,-7.76,-6.00,4.76,
2.062,31.97,-35.86,8.81,-7.76,-6.00,4.76,
2.063,31.97,-35.86,8.81,-8.03,-5.98,4.69,
2.067,31.95,-36.55,9.12,-8.03,-5.98,4.69,
2.102,31.95,-36.55,9.12,-8.29,-5.90,4.61,
2.102,31.93,-37.20,9.28,-8.29,-5.90,4.61,
2.103,31.93,-37.20,9.28,-8.55,-5.79,4.51,
2.103,31.91,-37.81,9.51,-8.55,-5.79,4.51,
2.104,31.91,-37.81,9.51,-8.82,-5.64,4.40,
2.104,31.88,-38.47,9.67,-8.82,-5.64,4.40,
2.105,31.88,-38.47,9.67,-9.09,-5.48,4.27,
2.106,31.86,-39.14,9.80,-9.09,-5.48,4.27,
2.106,31.86,-39.14,9.80,-9.36,-5.30,4.14,
2.107,31.84,-39.95,9.83,-9.36,-5.30,4.14,
2.108,31.84,-39.95,9.83,-9.63,-5.09,4.00,
2.108,31.84,-39.95,9.83,-9.92,-4.89,3.85,
2.109,31.81,-40.71,9.89,-9.92,-4.89,3.85,
2.109,31.81,-40.71,9.89,-10.22,-4.68,3.69,
2.11,31.79,-41.31,10.12,-10.22,-4.68,3.69,
2.111,31.76,-41.93,10.25,-10.22,-4.68,3.69,
2.111,31.76,-41.93,10.25,-10.52,-4.48,3.53,
2.112,31.73,-42.55,10.50,-10.52,-4.48,3.53,
2.112,31.73,-42.55,10.50,-10.83,-4.28,3.36,
2.121,31.69,-43.20,10.77,-10.83,-4.28,3.36,
2.122,31.69,-43.20,10.77,-11.13,-4.07,3.18,
2.123,31.66,-43.48,11.18,-11.13,-4.07,3.18,
2.123,31.66,-43.48,11.18,-11.45,-3.86,2.99,
2.129,31.62,-43.51,11.54,-11.45,-3.86,2.99,
2.129,31.62,-43.51,11.54,-11.73,-3.66,2.77,
2.141,31.58,-43.56,11.66,-11.73,-3.66,2.77,
2.142,31.58,-43.56,11.66,-12.01,-3.45,2.53,
2.143,31.55,-43.61,11.64,-12.01,-3.45,2.53,
2.143,31.55,-43.61,11.64,-12.27,-3.27,2.30,
2.144,31.51,-43.65,11.83,-12.27,-3.27,2.30,
2.144,31.51,-43.65,11.83,-12.53,-3.07,2.08,
2.145,31.46,-43.70,12.17,-12.53,-3.07,2.08,
2.146,31.46,-43.70,12.17,-12.76,-2.84,1.86,
2.15,31.46,-43.70,12.17,-12.96,-2.54,1.60,
2.151,31.42,-43.75,12.41,-12.96,-2.54,1.60,
2.16,31.38,-43.80,12.74,-12.96,-2.54,1.60,
2.161,31.38,-43.80,12.74,-13.13,-2.24,1.34,
2.161,31.38,-43.80,12.74,-13.26,-1.95,1.06,
2.162,31.34,-43.84,13.19,-13.26,-1.95,1.06,
2.164,31.30,-43.88,13.96,-13.26,-1.95,1.06,
2.165,31.30,-43.88,13.96,-13.35,-1.65,0.77,
2.182,31.26,-43.92,14.79,-13.35,-1.65,0.77,
2.183,31.26,-43.92,14.79,-13.37,-1.33,0.47,
2.184,31.22,-43.95,15.64,-13.37,-1.33,0.47,
2.185,31.22,-43.95,15.64,-13.34,-1.02,0.14,
2.185,31.19,-43.97,16.44,-13.34,-1.02,0.14,
2.186,31.19,-43.97,16.44,-13.22,-0.74,-0.20,
2.186,31.17,-43.98,17.22,-13.22,-0.74,-0.20,
2.187,31.17,-43.98,17.22,-13.03,-0.52,-0.57,
2.19,31.17,-43.98,17.22,-12.75,-0.38,-0.94,
2.19,31.15,-43.65,18.35,-12.75,-0.38,-0.94,
2.198,31.14,-42.74,19.60,-12.75,-0.38,-0.94,
2.199,31.14,-42.74,19.60,-12.38,-0.37,-1.32,
2.199,31.14,-41.66,20.77,-12.38,-0.37,-1.32,
2.2,31.14,-41.66,20.77,-11.89,-0.50,-1.72,
2.21,31.15,-40.51,22.05,-11.89,-0.50,-1.72,
2.211,31.15,-40.51,22.05,-11.29,-0.76,-2.10,
2.211,31.15,-40.51,22.05,-10.60,-1.10,-2.48,
2.212,31.17,-39.39,23.03,-10.60,-1.10,-2.48,
2.213,30.86,-38.20,23.95,-10.60,-1.10,-2.48,
2.214,30.86,-38.20,23.95,-9.83,-1.53,-2.83,
2.232,30.86,-38.20,23.95,-9.00,-2.02,-3.14,
2.232,29.39,-37.05,24.62,-9.00,-2.02,-3.14,
2.233,29.39,-37.05,24.62,-8.12,-2.55,-3.40,
2.234,27.62,-35.96,24.76,-8.12,-2.55,-3.40,
2.234,25.72,-34.85,24.30,-8.12,-2.55,-3.40,
2.235,25.72,-34.85,24.30,-7.24,-3.10,-3.61,
2.236,23.96,-33.70,23.41,-7.24,-3.10,-3.61,
2.236,23.96,-33.70,23.41,-6.40,-3.61,-3.74,
2.239,23.96,-33.70,23.41,-5.63,-4.07,-3.80,
2.239,22.50,-32.65,22.32,-5.63,-4.07,-3.80,
2.257,22.50,-32.65,22.32,-4.95,-4.46,-3.83,
2.258,21.38,-31.65,20.85,-4.95,-4.46,-3.83,
2.259,21.38,-31.65,20.85,-4.38,-4.73,-3.82,
2.26,20.19,-30.80,19.35,-4.38,-4.73,-3.82,
2.26,18.96,-30.04,17.83,-4.38,-4.73,-3.82,
2.261,18.96,-30.04,17.83,-3.93,-4.92,-3.79,
2.262,17.96,-29.49,16.30,-3.93,-4.92,-3.79,
2.263,17.96,-29.49,16.30,-3.59,-5.00,-3.73,
2.263,16.85,-28.96,14.76,-3.59,-5.00,-3.73,
2.264,16.85,-28.96,14.76,-3.36,-5.00,-3.63,
2.268,15.74,-28.34,13.38,-3.36,-5.00,-3.63,
2.269,15.74,-28.34,13.38,-3.25,-4.91,-3.50,
2.278,15.74,-28.34,13.38,-3.24,-4.74,-3.34,
2.279,14.85,-27.77,11.95,-3.24,-4.74,-3.34,
2.279,14.22,-27.24,10.74,-3.24,-4.74,-3.34,
2.28,14.22,-27.24,10.74,-3.32,-4.49,-3.16,
2.281,13.61,-26.72,9.78,-3.32,-4.49,-3.16,
2.282,13.61,-26.72,9.78,-3.47,-4.20,-2.99,
2.309,13.16,-26.29,9.20,-3.47,-4.20,-2.99,
2.31,13.16,-26.29,9.20,-3.68,-3.87,-2.82,
2.31,13.16,-26.29,9.20,-3.90,-3.53,-2.67,
2.311,12.89,-25.93,8.88,-3.90,-3.53,-2.67,
2.311,12.76,-25.65,8.83,-3.90,-3.53,-2.67,
2.312,12.76,-25.65,8.83,-4.14,-3.18,-2.53,
2.312,12.69,-25.42,9.04,-4.14,-3.18,-2.53,
2.313,12.69,-25.42,9.04,-4.35,-2.86,-2.41,
2.313,12.60,-25.05,9.26,-4.35,-2.86,-2.41,
2.314,12.60,-25.05,9.26,-4.52,-2.59,-2.32,
2.314,12.50,-24.65,9.47,-4.52,-2.59,-2.32,
2.347,12.50,-24.65,9.47,-4.65,-2.37,-2.25,
2.347,12.36,-24.27,9.68,-4.65,-2.37,-2.25,
2.348,12.36,-24.27,9.68,-4.74,-2.21,-2.21,
2.348,12.27,-23.86,9.92,-4.74,-2.21,-2.21,
2.349,12.27,-23.86,9.92,-4.77,-2.12,-2.19,
2.349,12.19,-23.46,10.16,-4.77,-2.12,-2.19,
2.35,12.19,-23.46,10.16,-4.76,-2.09,-2.20,
2.351,11.93,-23.05,10.33,-4.76,-2.09,-2.20,
2.351,11.93,-23.05,10.33,-4.71,-2.11,-2.22,
2.352,11.57,-22.65,10.47,-4.71,-2.11,-2.22,
2.353,11.57,-22.65,10.47,-4.62,-2.21,-2.27,
2.353,11.57,-22.65,10.47,-4.50,-2.35,-2.32,
2.354,11.12,-22.20,10.56,-4.50,-2.35,-2.32,
2.354,10.64,-21.87,10.65,-4.50,-2.35,-2.32,
2.355,10.64,-21.87,10.65,-4.38,-2.51,-2.37,
2.356,10.64,-21.87,10.65,-4.25,-2.65,-2.42,
2.356,10.00,-21.56,10.71,-4.25,-2.65,-2.42,
2.357,9.27,-21.44,10.59,-4.25,-2.65,-2.42,
2.357,9.27,-21.44,10.59,-4.13,-2.75,-2.45,
2.411,8.49,-21.32,10.43,-4.13,-2.75,-2.45,
2.412,8.49,-21.32,10.43,-4.03,-2.81,-2.47,
2.413,7.84,-21.26,10.20,-4.03,-2.81,-2.47,
2.413,7.84,-21.26,10.20,-3.95,-2.83,-2.47,
2.414,6.94,-21.09,10.07,-3.95,-2.83,-2.47,
2.414,6.94,-21.09,10.07,-3.91,-2.81,-2.45,
2.417,6.94,-21.09,10.07,-3.90,-2.76,-2.42,
2.42,6.07,-20.90,9.95,-3.90,-2.76,-2.42,
2.422,5.32,-20.83,9.63,-3.90,-2.76,-2.42,
2.423,5.32,-20.83,9.63,-3.91,-2.67,-2.38,
2.427,4.65,-20.74,9.37,-3.91,-2.67,-2.38,
2.429,4.65,-20.74,9.37,-3.96,-2.56,-2.32,
2.43,4.65,-20.74,9.37,-4.04,-2.44,-2.26,
2.431,4.05,-20.72,9.18,-4.04,-2.44,-2.26,
2.432,4.05,-20.72,9.18,-4.15,-2.30,-2.20,
2.433,3.57,-20.77,8.89,-4.15,-2.30,-2.20,
2.434,3.10,-20.90,8.80,-4.15,-2.30,-2.20,
2.436,3.10,-20.90,8.80,-4.28,-2.14,-2.13,
2.437,2.51,-20.90,8.86,-4.28,-2.14,-2.13,
2.438,2.51,-20.90,8.86,-4.43,-1.96,-2.06,
2.44,2.51,-20.90,8.86,-4.57,-1.78,-1.99,
2.44,1.88,-20.85,9.15,-4.57,-1.78,-1.99,
2.442,1.88,-20.85,9.15,-4.70,-1.60,-1.92,
2.443,1.33,-20.75,9.49,-4.70,-1.60,-1.92,
2.445,1.33,-20.75,9.49,-4.81,-1.43,-1.85,
2.447,0.82,-20.63,9.95,-4.81,-1.43,-1.85,
2.449,0.82,-20.63,9.95,-4.89,-1.27,-1.80,
2.45,0.18,-20.41,10.43,-4.89,-1.27,-1.80,
2.451,0.18,-20.41,10.43,-4.93,-1.13,-1.75,
2.453,-0.42,-20.16,10.94,-4.93,-1.13,-1.75,
2.454,-0.93,-19.96,11.32,-4.93,-1.13,-1.75,
2.456,-0.93,-19.96,11.32,-4.94,-1.01,-1.72,
2.458,-0.93,-19.96,11.32,-4.92,-0.90,-1.69,
2.459,-1.50,-19.83,11.59,-4.92,-0.90,-1.69,
2.46,-2.21,-19.49,11.66,-4.92,-0.90,-1.69,
2.461,-2.21,-19.49,11.66,-4.88,-0.82,-1.69,
2.462,-2.21,-19.49,11.66,-4.83,-0.74,-1.69,
2.463,-2.95,-19.19,11.60,-4.83,-0.74,-1.69,
2.463,-2.95,-19.19,11.60,-4.77,-0.68,-1.71,
2.464,-3.62,-19.02,11.32,-4.77,-0.68,-1.71,
2.465,-4.13,-19.13,10.89,-4.77,-0.68,-1.71,
2.465,-4.13,-19.13,10.89,-4.71,-0.65,-1.71,
2.466,-4.59,-19.40,10.33,-4.71,-0.65,-1.71,
2.467,-4.59,-19.40,10.33,-4.67,-0.65,-1.72,
2.472,-4.59,-19.40,10.33,-4.65,-0.67,-1.71,
2.473,-4.94,-19.68,9.81,-4.65,-0.67,-1.71,
2.474,-4.94,-19.68,9.81,-4.66,-0.70,-1.70,
2.475,-5.43,-20.03,9.30,-4.66,-0.70,-1.70,
2.485,-5.43,-20.03,9.30,-4.69,-0.74,-1.67,
2.486,-5.95,-20.20,9.03,-4.69,-0.74,-1.67,
2.486,-6.40,-20.33,9.02,-4.69,-0.74,-1.67,
2.487,-6.40,-20.33,9.02,-4.74,-0.78,-1.63,
2.488,-6.40,-20.33,9.02,-4.78,-0.82,-1.57,
2.488,-6.91,-20.36,9.22,-4.78,-0.82,-1.57,
2.493,-6.91,-20.36,9.22,-4.81,-0.87,-1.50,
2.494,-7.41,-20.23,9.76,-4.81,-0.87,-1.50,
2.496,-7.41,-20.23,9.76,-4.81,-0.92,-1.42,
2.497,-7.77,-20.12,10.47,-4.81,-0.92,-1.42,
2.51,-7.77,-20.12,10.47,-4.76,-0.99,-1.34,
2.511,-8.13,-20.13,11.30,-4.76,-0.99,-1.34,
2.512,-8.49,-20.17,12.22,-4.76,-0.99,-1.34,
2.512,-8.49,-20.17,12.22,-4.66,-1.06,-1.26,
2.513,-8.49,-20.17,12.22,-4.51,-1.15,-1.15,
2.513,-8.81,-20.08,12.99,-4.51,-1.15,-1.15,
2.516,-9.03,-19.86,13.63,-4.51,-1.15,-1.15,
2.517,-9.03,-19.86,13.63,-4.32,-1.25,-1.04,
2.531,-9.11,-19.56,14.08,-4.32,-1.25,-1.04,
2.532,-9.11,-19.56,14.08,-4.10,-1.38,-0.91,
2.533,-9.11,-19.56,14.08,-3.85,-1.51,-0.76,
2.534,-9.21,-19.29,14.57,-3.85,-1.51,-0.76,
2.534,-9.21,-19.29,14.57,-3.59,-1.65,-0.61,
2.535,-9.40,-18.98,14.77,-3.59,-1.65,-0.61,
2.536,-9.60,-18.57,14.77,-3.59,-1.65,-0.61,
2.537,-9.60,-18.57,14.77,-3.31,-1.78,-0.44,
2.541,-9.60,-18.57,14.77,-3.04,-1.90,-0.25,
2.541,-9.82,-17.91,14.71,-3.04,-1.90,-0.25,
2.545,-9.99,-17.23,14.75,-3.04,-1.90,-0.25,
2.546,-9.99,-17.23,14.75,-2.79,-2.01,-0.03,
2.55,-9.82,-16.60,14.78,-2.79,-2.01,-0.03,
2.551,-9.82,-16.60,14.78,-2.55,-2.10,0.20,
2.555,-9.58,-16.08,14.75,-2.55,-2.10,0.20,
2.586,-9.58,-16.08,14.75,-2.32,-2.15,0.45,
2.587,-9.58,-16.08,14.75,-2.12,-2.15,0.70,
2.587,-9.11,-15.52,14.71,-2.12,-2.15,0.70,
2.588,-9.11,-15.52,14.71,-1.95,-2.11,0.95,
2.588,-8.40,-15.06,14.67,-1.95,-2.11,0.95,
2.589,-8.40,-15.06,14.67,-1.80,-2.02,1.17,
2.589,-7.59,-14.63,14.63,-1.80,-2.02,1.17,
2.59,-7.59,-14.63,14.63,-1.69,-1.90,1.37,
2.59,-6.87,-14.22,14.46,-1.69,-1.90,1.37,
2.591,-6.87,-14.22,14.46,-1.59,-1.74,1.55,
2.591,-6.19,-13.80,14.36,-1.59,-1.74,1.55,
2.591,-5.51,-13.19,14.40,-1.59,-1.74,1.55,
2.592,-5.51,-13.19,14.40,-1.53,-1.57,1.71,
2.592,-4.76,-12.53,14.60,-1.53,-1.57,1.71,
2.593,-4.76,-12.53,14.60,-1.47,-1.38,1.85,
2.596,-4.03,-11.76,14.94,-1.47,-1.38,1.85,
2.596,-4.03,-11.76,14.94,-1.40,-1.21,1.96,
2.599,-3.13,-11.06,15.30,-1.40,-1.21,1.96,
2.599,-3.13,-11.06,15.30,-1.32,-1.05,2.06,
2.604,-1.85,-10.35,15.78,-1.32,-1.05,2.06,
2.604,-1.85,-10.35,15.78,-1.21,-0.90,2.13,
2.608,-0.43,-9.64,16.11,-1.21,-0.90,2.13,
2.609,-0.43,-9.64,16.11,-1.08,-0.76,2.16,
2.613,0.89,-8.90,16.26,-1.08,-0.76,2.16,
2.614,0.89,-8.90,16.26,-0.92,-0.62,2.15,
2.618,1.65,-8.15,16.14,-0.92,-0.62,2.15,
2.619,1.65,-8.15,16.14,-0.74,-0.49,2.09,
2.627,1.81,-7.47,15.83,-0.74,-0.49,2.09,
2.628,1.81,-7.47,15.83,-0.56,-0.38,2.01,
2.629,1.53,-6.93,15.52,-0.56,-0.38,2.01,
2.63,1.53,-6.93,15.52,-0.39,-0.29,1.92,
2.632,1.53,-6.93,15.52,-0.23,-0.24,1.86,
2.633,1.21,-6.56,15.20,-0.23,-0.24,1.86,
2.645,0.98,-6.26,14.89,-0.23,-0.24,1.86,
2.646,0.98,-6.26,14.89,-0.07,-0.21,1.83,
2.646,0.82,-6.06,14.60,-0.07,-0.21,1.83,
2.647,0.82,-6.06,14.60,0.10,-0.24,1.81,
2.647,0.82,-6.06,14.60,0.27,-0.32,1.81,
2.647,0.68,-5.90,14.21,0.27,-0.32,1.81,
2.653,0.68,-5.90,14.21,0.44,-0.43,1.83,
2.654,0.54,-5.80,13.86,0.44,-0.43,1.83,
2.657,0.54,-5.80,13.86,0.60,-0.57,1.86,
2.658,0.50,-5.84,13.49,0.60,-0.57,1.86,
2.662,0.50,-5.84,13.49,0.75,-0.73,1.90,
2.663,0.65,-5.95,13.26,0.75,-0.73,1.90,
2.667,0.65,-5.95,13.26,0.89,-0.89,1.95,
2.667,0.87,-5.96,13.22,0.89,-0.89,1.95,
2.672,0.87,-5.96,13.22,1.03,-1.03,2.00,
2.673,1.03,-5.77,13.42,1.03,-1.03,2.00,
2.677,1.03,-5.77,13.42,1.19,-1.12,2.06,
2.677,1.05,-5.50,13.65,1.19,-1.12,2.06,
2.681,1.05,-5.50,13.65,1.34,-1.15,2.14,
2.682,1.02,-5.22,13.80,1.34,-1.15,2.14,
2.688,1.15,-5.02,14.01,1.34,-1.15,2.14,
2.689,1.15,-5.02,14.01,1.49,-1.15,2.23,
2.692,1.15,-5.02,14.01,1.64,-1.10,2.32,
2.693,1.40,-4.86,14.18,1.64,-1.10,2.32,
2.697,1.40,-4.86,14.18,1.79,-1.02,2.42,
2.697,1.69,-4.68,14.37,1.79,-1.02,2.42,
2.701,1.69,-4.68,14.37,1.95,-0.92,2.52,
2.702,2.01,-4.45,14.39,1.95,-0.92,2.52,
2.708,2.48,-4.21,14.27,1.95,-0.92,2.52,
2.708,2.48,-4.21,14.27,2.11,-0.80,2.62,
2.712,2.48,-4.21,14.27,2.26,-0.71,2.70,
2.712,3.15,-3.99,14.15,2.26,-0.71,2.70,
2.716,3.15,-3.99,14.15,2.42,-0.62,2.76,
2.717,3.93,-3.90,14.02,2.42,-0.62,2.76,
2.73,3.93,-3.90,14.02,2.57,-0.57,2.78,
2.731,4.69,-3.79,13.95,2.57,-0.57,2.78,
2.732,4.69,-3.79,13.95,2.73,-0.54,2.78,
2.732,5.36,-3.60,13.93,2.73,-0.54,2.78,
2.733,5.89,-3.43,13.83,2.73,-0.54,2.78,
2.734,5.89,-3.43,13.83,2.90,-0.55,2.75,
2.737,5.89,-3.43,13.83,3.07,-0.59,2.69,
2.738,6.30,-3.34,13.62,3.07,-0.59,2.69,
2.758,6.70,-3.32,13.41,3.07,-0.59,2.69,
2.759,6.70,-3.32,13.41,3.23,-0.63,2.63,
2.76,7.07,-3.34,13.25,3.23,-0.63,2.63,
2.76,7.07,-3.34,13.25,3.39,-0.69,2.55,
2.761,7.25,-3.31,13.17,3.39,-0.69,2.55,
2.761,7.25,-3.31,13.17,3.54,-0.74,2.45,
2.762,7.25,-3.31,13.17,3.69,-0.79,2.35,
2.762,6.99,-3.20,13.07,3.69,-0.79,2.35,
2.763,6.99,-3.20,13.07,3.82,-0.82,2.26,
2.763,6.69,-3.17,13.00,3.82,-0.82,2.26,
2.766,6.53,-3.20,13.01,3.82,-0.82,2.26,
2.767,6.53,-3.20,13.01,3.95,-0.84,2.19,
2.77,6.61,-3.23,12.97,3.95,-0.84,2.19,
2.771,6.61,-3.23,12.97,4.07,-0.84,2.15,
2.775,6.93,-3.33,12.77,4.07,-0.84,2.15,
2.775,6.93,-3.33,12.77,4.19,-0.80,2.10,
2.78,7.46,-3.47,12.61,4.19,-0.80,2.10,
2.781,7.46,-3.47,12.61,4.28,-0.73,2.06,
2.784,8.05,-3.57,12.39,4.28,-0.73,2.06,
2.785,8.05,-3.57,12.39,4.36,-0.63,2.00,
2.79,8.61,-3.70,12.12,4.36,-0.63,2.00,
2.79,8.61,-3.70,12.12,4.42,-0.49,1.92,
2.794,9.06,-3.91,11.84,4.42,-0.49,1.92,
2.794,9.06,-3.91,11.84,4.45,-0.32,1.82,
2.799,9.40,-4.21,11.53,4.45,-0.32,1.82,
2.841,9.40,-4.21,11.53,4.46,-0.12,1.72,
2.841,9.62,-4.55,11.34,4.46,-0.12,1.72,
2.842,9.62,-4.55,11.34,4.45,0.11,1.62,
2.842,9.72,-4.95,11.10,4.45,0.11,1.62,
2.842,9.72,-4.95,11.10,4.43,0.37,1.52,
2.843,9.71,-5.42,10.85,4.43,0.37,1.52,
2.843,9.71,-5.42,10.85,4.39,0.64,1.43,
2.844,9.76,-5.95,10.62,4.39,0.64,1.43,
2.844,9.76,-5.95,10.62,4.36,0.92,1.35,
2.845,9.77,-6.47,10.39,4.36,0.92,1.35,
2.845,9.77,-6.47,10.39,4.33,1.19,1.29,
2.845,9.77,-6.90,10.25,4.33,1.19,1.29,
2.846,9.77,-6.90,10.25,4.30,1.45,1.25,
2.846,9.86,-7.34,10.22,4.30,1.45,1.25,
2.847,9.86,-7.34,10.22,4.29,1.67,1.21,
2.847,10.04,-7.86,10.23,4.29,1.67,1.21,
2.848,10.04,-7.86,10.23,4.30,1.86,1.18,
2.848,10.31,-8.39,10.22,4.30,1.86,1.18,
2.849,10.31,-8.39,10.22,4.35,2.02,1.15,
2.849,10.51,-8.95,10.17,4.35,2.02,1.15,
2.85,10.51,-8.95,10.17,4.43,2.14,1.12,
2.888,10.51,-8.95,10.17,4.53,2.23,1.10,
2.889,10.73,-9.51,10.13,4.53,2.23,1.10,
2.889,10.73,-9.51,10.13,4.67,2.29,1.07,
2.89,10.88,-10.07,10.00,4.67,2.29,1.07,
2.89,10.88,-10.07,10.00,4.83,2.33,1.03,
2.89,11.03,-10.75,9.89,4.83,2.33,1.03,
2.891,11.03,-10.75,9.89,5.01,2.35,0.99,
2.891,11.24,-11.52,9.82,5.01,2.35,0.99,
2.892,11.43,-12.26,9.77,5.01,2.35,0.99,
2.892,11.43,-12.26,9.77,5.21,2.34,0.95,
2.892,11.51,-13.03,9.61,5.21,2.34,0.95,
2.893,11.51,-13.03,9.61,5.45,2.31,0.91,
2.893,11.51,-13.03,9.61,5.70,2.27,0.88,
2.893,11.60,-13.81,9.44,5.70,2.27,0.88,
2.894,11.64,-14.57,9.09,5.70,2.27,0.88,
2.894,11.64,-14.57,9.09,5.96,2.23,0.83,
2.895,11.71,-15.32,8.62,5.96,2.23,0.83,
2.895,11.71,-15.32,8.62,6.23,2.19,0.80,
2.904,11.83,-15.99,8.12,6.23,2.19,0.80,
2.906,11.83,-15.99,8.12,6.49,2.16,0.76,
2.907,11.83,-15.99,8.12,6.72,2.16,0.73,
2.907,11.92,-16.69,7.55,6.72,2.16,0.73,
2.997,11.99,-17.35,6.93,6.72,2.16,0.73,
2.999,11.99,-17.35,6.93,6.94,2.17,0.70,
3.0,12.06,-18.01,6.26,6.94,2.17,0.70,
3.001,12.06,-18.01,6.26,7.13,2.21,0.66,
3.001,12.06,-18.01,6.26,7.29,2.26,0.63,
3.002,12.22,-18.69,5.53,7.29,2.26,0.63,
3.002,12.22,-18.69,5.53,7.41,2.31,0.59,
3.003,12.41,-19.33,4.83,7.41,2.31,0.59,
3.003,12.41,-19.33,4.83,7.51,2.36,0.54,
3.004,12.60,-19.93,4.25,7.51,2.36,0.54,
3.004,12.86,-20.44,3.68,7.51,2.36,0.54,
3.005,12.86,-20.44,3.68,7.58,2.39,0.49,
3.005,12.86,-20.44,3.68,7.63,2.41,0.45,
3.006,13.04,-20.91,3.17,7.63,2.41,0.45,
3.007,13.29,-21.24,2.56,7.63,2.41,0.45,
3.008,13.29,-21.24,2.56,7.65,2.41,0.40,
3.009,13.29,-21.24,2.56,7.64,2.41,0.36,
3.009,13.67,-21.41,2.08,7.64,2.41,0.36,
3.01,13.99,-21.53,1.50,7.64,2.41,0.36,
3.01,13.99,-21.53,1.50,7.61,2.42,0.29,
3.011,14.06,-21.71,0.75,7.61,2.42,0.29,
3.011,14.06,-21.71,0.75,7.55,2.43,0.21,
3.012,13.86,-21.94,0.03,7.55,2.43,0.21,
3.012,13.86,-21.94,0.03,7.45,2.46,0.13,
3.013,13.53,-22.07,-0.52,7.45,2.46,0.13,
3.014,13.53,-22.07,-0.52,7.30,2.52,0.06,
3.014,13.27,-22.04,-0.87,7.30,2.52,0.06,
3.015,13.27,-22.04,-0.87,7.12,2.59,0.03,
3.015,13.33,-21.91,-0.95,7.12,2.59,0.03,
3.016,13.33,-21.91,-0.95,6.91,2.68,0.03,
3.016,13.56,-21.80,-0.80,6.91,2.68,0.03,
3.017,13.56,-21.80,-0.80,6.71,2.78,0.04,
3.017,13.94,-21.76,-0.63,6.71,2.78,0.04,
3.018,13.94,-21.76,-0.63,6.51,2.87,0.05,
3.018,14.35,-21.75,-0.38,6.51,2.87,0.05,
3.019,14.35,-21.75,-0.38,6.33,2.95,0.05,
3.02,14.35,-21.75,-0.38,6.17,3.01,0.04,
3.02,15.07,-21.78,-0.12,6.17,3.01,0.04,
3.021,16.05,-21.69,0.26,6.17,3.01,0.04,
3.021,16.05,-21.69,0.26,6.04,3.05,0.02,
3.022,16.96,-21.63,0.51,6.04,3.05,0.02,
3.023,16.96,-21.63,0.51,5.93,3.08,-0.03,
3.023,17.53,-21.66,0.77,5.93,3.08,-0.03,
3.024,17.53,-21.66,0.77,5.85,3.09,-0.12,
3.024,17.53,-21.66,0.77,5.79,3.09,-0.25,
3.025,17.88,-21.70,0.98,5.79,3.09,-0.25,
3.026,17.88,-21.70,0.98,5.74,3.09,-0.37,
3.026,18.02,-21.83,1.14,5.74,3.09,-0.37,
3.026,17.96,-21.95,1.33,5.74,3.09,-0.37,
3.027,17.96,-21.95,1.33,5.72,3.09,-0.49,
3.04,17.64,-22.04,1.40,5.72,3.09,-0.49,
3.041,17.64,-22.04,1.40,5.70,3.10,-0.60,
3.041,17.64,-22.04,1.40,5.70,3.10,-0.69,
3.041,17.12,-22.24,1.33,5.70,3.10,-0.69,
3.042,16.65,-22.42,1.23,5.70,3.10,-0.69,
3.043,16.65,-22.42,1.23,5.69,3.10,-0.76,
3.043,16.14,-22.63,1.13,5.69,3.10,-0.76,
3.072,16.14,-22.63,1.13,5.68,3.09,-0.79,
3.073,15.74,-22.80,0.95,5.68,3.09,-0.79,
3.073,15.74,-22.80,0.95,5.66,3.08,-0.80,
3.074,15.62,-22.92,0.90,5.66,3.08,-0.80,
3.074,15.62,-22.92,0.90,5.63,3.08,-0.77,
3.075,16.04,-22.98,0.84,5.63,3.08,-0.77,
3.075,16.04,-22.98,0.84,5.60,3.08,-0.74,
3.075,16.70,-22.96,0.82,5.60,3.08,-0.74,
3.076,16.70,-22.96,0.82,5.57,3.09,-0.70,
3.076,17.37,-22.88,0.70,5.57,3.09,-0.70,
3.077,17.37,-22.88,0.70,5.54,3.10,-0.68,
3.077,17.97,-22.72,0.55,5.54,3.10,-0.68,
3.078,17.97,-22.72,0.55,5.51,3.10,-0.70,
3.078,18.37,-22.55,0.35,5.51,3.10,-0.70,
3.079,18.37,-22.55,0.35,5.48,3.11,-0.74,
3.089,18.37,-22.55,0.35,5.44,3.11,-0.79,
3.089,18.56,-22.37,0.11,5.44,3.11,-0.79,
3.09,18.65,-22.27,-0.33,5.44,3.11,-0.79,
3.09,18.65,-22.27,-0.33,5.39,3.11,-0.84,
3.091,18.65,-22.27,-0.33,5.33,3.12,-0.88,
3.091,18.87,-22.20,-0.56,5.33,3.12,-0.88,
3.097,18.87,-22.11,-0.86,5.33,3.12,-0.88,
3.097,18.87,-22.11,-0.86,5.24,3.15,-0.92,
3.101,18.87,-22.11,-0.86,5.14,3.20,-0.95,
3.102,18.60,-21.96,-1.07,5.14,3.20,-0.95,
3.109,18.26,-21.71,-1.25,5.14,3.20,-0.95,
3.11,18.26,-21.71,-1.25,5.02,3.24,-0.96,
3.111,18.26,-21.71,-1.25,4.89,3.28,-0.94,
3.111,18.00,-21.40,-1.58,4.89,3.28,-0.94,
3.116,18.00,-21.40,-1.58,4.71,3.31,-0.88,
3.116,17.87,-21.05,-2.02,4.71,3.31,-0.88,
3.127,18.02,-20.63,-2.30,4.71,3.31,-0.88,
3.128,18.02,-20.63,-2.30,4.50,3.35,-0.80,
3.128,18.48,-20.07,-2.33,4.50,3.35,-0.80,
3.129,18.48,-20.07,-2.33,4.26,3.43,-0.71,
3.131,19.13,-19.49,-2.50,4.26,3.43,-0.71,
3.131,19.13,-19.49,-2.50,3.99,3.55,-0.63,
3.135,19.13,-19.49,-2.50,3.70,3.70,-0.56,
3.136,20.03,-18.94,-2.85,3.70,3.70,-0.56,
3.148,20.03,-18.94,-2.85,3.37,3.87,-0.50,
3.149,21.65,-18.43,-3.10,3.37,3.87,-0.50,
3.15,23.70,-17.89,-3.02,3.37,3.87,-0.50,
3.151,23.70,-17.89,-3.02,3.02,4.05,-0.49,
3.151,23.70,-17.89,-3.02,2.68,4.24,-0.53,
3.151,25.58,-17.38,-2.72,2.68,4.24,-0.53,
3.155,27.15,-17.08,-2.31,2.68,4.24,-0.53,
3.156,27.15,-17.08,-2.31,2.36,4.46,-0.64,
3.163,27.15,-17.08,-2.31,2.08,4.69,-0.81,
3.164,27.64,-17.23,-2.26,2.08,4.69,-0.81,
3.165,27.20,-17.25,-1.88,2.08,4.69,-0.81,
3.166,27.20,-17.25,-1.88,1.80,4.90,-0.96,
3.169,27.20,-17.25,-1.88,1.57,5.15,-1.06,
3.17,26.85,-17.22,-1.36,1.57,5.15,-1.06,
3.182,26.01,-18.08,-1.58,1.57,5.15,-1.06,
3.184,26.01,-18.08,-1.58,1.38,5.37,-1.11,
3.184,24.99,-18.31,-1.37,1.38,5.37,-1.11,
3.184,24.99,-18.31,-1.37,1.18,5.50,-1.08,
3.185,24.77,-18.24,-0.75,1.18,5.50,-1.08,
3.185,24.77,-18.24,-0.75,1.01,5.69,-0.97,
3.189,24.77,-18.24,-0.75,0.90,5.89,-0.84,
3.19,25.03,-18.14,-0.10,0.90,5.89,-0.84,
3.194,25.03,-18.14,-0.10,0.84,6.06,-0.71,
3.194,25.57,-18.03,0.12,0.84,6.06,-0.71,
3.198,25.57,-18.03,0.12,0.82,6.18,-0.61,
3.199,26.22,-17.89,-0.15,0.82,6.18,-0.61,
3.204,26.22,-17.89,-0.15,0.80,6.30,-0.52,
3.204,26.73,-17.75,-0.63,0.80,6.30,-0.52,
3.208,26.73,-17.75,-0.63,0.78,6.39,-0.46,
3.209,27.15,-17.67,-1.09,0.78,6.39,-0.46,
3.213,27.31,-17.46,-1.48,0.78,6.39,-0.46,
3.214,27.31,-17.46,-1.48,0.76,6.45,-0.41,
3.218,27.36,-17.33,-1.65,0.76,6.45,-0.41,
3.219,27.36,-17.33,-1.65,0.74,6.48,-0.37,
3.224,27.36,-17.33,-1.65,0.73,6.48,-0.32,
3.224,27.25,-17.20,-1.58,0.73,6.48,-0.32,
3.228,27.04,-17.03,-1.53,0.73,6.48,-0.32,
3.229,27.04,-17.03,-1.53,0.73,6.45,-0.26,
3.233,26.93,-16.98,-1.51,0.73,6.45,-0.26,
3.234,26.93,-16.98,-1.51,0.75,6.41,-0.18,
3.239,26.93,-16.97,-1.53,0.75,6.41,-0.18,
3.24,26.93,-16.97,-1.53,0.80,6.36,-0.08,
3.243,27.02,-16.93,-1.60,0.80,6.36,-0.08,
3.244,27.02,-16.93,-1.60,0.86,6.28,0.02,
3.248,27.06,-16.83,-1.76,0.86,6.28,0.02,
3.248,27.06,-16.83,-1.76,0.93,6.19,0.12,
3.252,27.00,-16.85,-2.06,0.93,6.19,0.12,
3.253,27.00,-16.85,-2.06,0.99,6.09,0.23,
3.263,26.72,-16.91,-2.35,0.99,6.09,0.23,
3.264,26.72,-16.91,-2.35,1.05,5.99,0.36,
3.265,26.72,-16.91,-2.35,1.09,5.90,0.49,
3.265,26.23,-16.92,-2.46,1.09,5.90,0.49,
3.292,26.23,-16.92,-2.46,1.11,5.84,0.65,
3.293,25.99,-16.85,-2.55,1.11,5.84,0.65,
3.293,26.17,-16.78,-2.36,1.11,5.84,0.65,
3.294,26.17,-16.78,-2.36,1.12,5.81,0.83,
3.294,26.51,-16.67,-2.26,1.12,5.81,0.83,
3.294,26.51,-16.67,-2.26,1.12,5.80,1.02,
3.295,26.51,-16.67,-2.26,1.14,5.79,1.19,
3.295,26.69,-16.55,-2.15,1.14,5.79,1.19,
3.296,26.69,-16.55,-2.15,1.15,5.80,1.36,
3.329,26.86,-16.44,-1.94,1.15,5.80,1.36,
3.33,27.15,-16.31,-1.80,1.15,5.80,1.36,
3.331,27.15,-16.31,-1.80,1.17,5.81,1.54,
3.331,27.65,-16.20,-1.73,1.17,5.81,1.54,
3.331,27.65,-16.20,-1.73,1.18,5.82,1.73,
3.332,28.36,-16.08,-1.57,1.18,5.82,1.73,
3.332,28.36,-16.08,-1.57,1.21,5.82,1.91,
3.333,29.01,-15.81,-1.51,1.21,5.82,1.91,
3.334,29.01,-15.81,-1.51,1.23,5.81,2.08,
3.334,29.63,-15.59,-1.29,1.23,5.81,2.08,
3.335,29.63,-15.59,-1.29,1.26,5.78,2.24,
3.335,29.63,-15.59,-1.29,1.30,5.75,2.39,
3.336,30.24,-15.38,-1.01,1.30,5.75,2.39,
3.336,30.96,-15.22,-0.46,1.30,5.75,2.39,
3.337,30.96,-15.22,-0.46,1.35,5.72,2.53,
3.337,30.96,-15.22,-0.46,1.43,5.69,2.65,
3.338,31.92,-15.16,0.03,1.43,5.69,2.65,
3.338,32.90,-14.97,0.57,1.43,5.69,2.65,
3.339,32.90,-14.97,0.57,1.55,5.65,2.74,
3.34,32.90,-14.97,0.57,1.69,5.60,2.81,
3.34,33.44,-14.85,1.02,1.69,5.60,2.81,
3.341,33.62,-14.80,1.37,1.69,5.60,2.81,
3.341,33.62,-14.80,1.37,1.87,5.54,2.85,
3.378,33.62,-14.80,1.37,2.06,5.47,2.89,
3.378,33.70,-14.84,1.60,2.06,5.47,2.89,
3.379,33.74,-14.96,1.83,2.06,5.47,2.89,
3.379,33.74,-14.96,1.83,2.26,5.41,2.93,
3.38,33.74,-14.96,1.83,2.46,5.36,2.97,
3.38,33.80,-15.10,1.99,2.46,5.36,2.97,
3.38,33.80,-15.10,1.99,2.65,5.32,3.03,
3.382,34.20,-15.33,1.98,2.65,5.32,3.03,
3.382,34.69,-15.62,1.95,2.65,5.32,3.03,
3.383,34.69,-15.62,1.95,2.84,5.30,3.10,
3.383,35.21,-15.90,1.85,2.84,5.30,3.10,
3.384,35.21,-15.90,1.85,3.00,5.32,3.15,
3.384,35.21,-15.90,1.85,3.15,5.37,3.22,
3.385,35.72,-16.15,1.71,3.15,5.37,3.22,
3.385,35.70,-16.42,1.42,3.15,5.37,3.22,
3.385,35.70,-16.42,1.42,3.28,5.46,3.28,
3.386,35.67,-16.64,1.06,3.28,5.46,3.28,
3.386,35.67,-16.64,1.06,3.37,5.57,3.34,
3.389,35.65,-16.83,0.62,3.37,5.57,3.34,
3.39,35.65,-16.83,0.62,3.44,5.69,3.40,
3.394,35.65,-16.83,0.62,3.47,5.80,3.44,
3.394,35.63,-17.06,0.28,3.47,5.80,3.44,
3.399,35.63,-17.06,0.28,3.49,5.89,3.45,
3.399,35.60,-17.19,-0.02,3.49,5.89,3.45,
3.403,35.60,-17.19,-0.02,3.49,5.96,3.44,
3.404,35.58,-17.33,-0.34,3.49,5.96,3.44,
3.411,35.56,-17.40,-0.52,3.49,5.96,3.44,
3.412,35.56,-17.40,-0.52,3.48,5.97,3.40,
3.413,35.54,-17.53,-0.51,3.48,5.97,3.40,
3.414,35.54,-17.53,-0.51,3.46,5.97,3.33,
3.418,35.54,-17.53,-0.51,3.44,5.95,3.27,
3.419,35.53,-17.74,-0.06,3.44,5.95,3.27,
3.44,35.53,-17.74,-0.06,3.45,5.92,3.22,
3.44,35.51,-17.99,0.61,3.45,5.92,3.22,
3.441,35.49,-18.33,1.44,3.45,5.92,3.22,
3.441,35.49,-18.33,1.44,3.49,5.90,3.19,
3.442,35.49,-18.33,1.44,3.57,5.88,3.17,
3.442,35.48,-18.73,2.44,3.57,5.88,3.17,
3.443,35.48,-18.73,2.44,3.71,5.88,3.16,
3.443,35.46,-19.16,3.58,3.71,5.88,3.16,
3.444,35.44,-19.59,4.52,3.71,5.88,3.16,
3.444,35.44,-19.59,4.52,3.90,5.88,3.14,
3.447,35.44,-19.59,4.52,4.16,5.89,3.12,
3.448,35.43,-20.03,5.17,4.16,5.89,3.12,
3.452,35.43,-20.03,5.17,4.45,5.91,3.08,
3.453,35.41,-20.41,5.42,4.45,5.91,3.08,
3.458,35.41,-20.41,5.42,4.77,5.95,3.03,
3.458,35.39,-20.76,5.39,4.77,5.95,3.03,
3.462,35.38,-21.15,5.00,4.77,5.95,3.03,
3.463,35.38,-21.15,5.00,5.09,6.02,2.97,
3.467,35.37,-21.48,4.58,5.09,6.02,2.97,
3.468,35.37,-21.48,4.58,5.39,6.10,2.89,
3.478,35.37,-21.48,4.58,5.68,6.20,2.81,
3.478,35.36,-21.85,4.11,5.68,6.20,2.81,
3.479,35.35,-22.43,3.43,5.68,6.20,2.81,
3.48,35.35,-22.43,3.43,5.95,6.32,2.74,
3.482,35.35,-23.04,2.59,5.95,6.32,2.74,
3.482,35.35,-23.04,2.59,6.18,6.44,2.66,
3.486,35.34,-23.54,1.37,6.18,6.44,2.66,
3.487,35.34,-23.54,1.37,6.38,6.57,2.57,
3.499,35.34,-23.54,1.37,6.52,6.68,2.46,
3.5,35.34,-23.92,0.17,6.52,6.68,2.46,
3.501,35.34,-23.92,0.17,6.61,6.77,2.31,
3.501,35.34,-24.17,-1.02,6.61,6.77,2.31,
3.502,35.34,-24.50,-1.90,6.61,6.77,2.31,
3.502,35.34,-24.50,-1.90,6.65,6.83,2.15,
3.507,35.35,-24.89,-2.53,6.65,6.83,2.15,
3.511,35.35,-24.89,-2.53,6.66,6.87,1.99,
3.511,35.35,-25.28,-2.85,6.66,6.87,1.99,
3.512,35.35,-25.28,-2.85,6.64,6.89,1.84,
3.516,35.35,-25.28,-2.85,6.60,6.90,1.73,
3.516,35.36,-25.56,-3.12,6.60,6.90,1.73,
3.521,35.36,-25.63,-3.81,6.60,6.90,1.73,
3.521,35.36,-25.63,-3.81,6.55,6.90,1.66,
3.526,35.36,-25.63,-3.81,6.45,6.91,1.64,
3.527,35.37,-25.63,-4.20,6.45,6.91,1.64,
3.531,35.36,-25.65,-4.34,6.45,6.91,1.64,
3.568,35.36,-25.65,-4.34,6.32,6.94,1.66,
3.568,35.36,-25.65,-4.34,6.17,7.00,1.71,
3.568,35.35,-25.71,-4.65,6.17,7.00,1.71,
3.569,35.35,-25.71,-4.65,5.99,7.07,1.79,
3.569,35.33,-25.75,-4.79,5.99,7.07,1.79,
3.57,35.31,-25.81,-5.16,5.99,7.07,1.79,
3.57,35.31,-25.81,-5.16,5.78,7.18,1.91,
3.571,35.28,-25.89,-5.33,5.78,7.18,1.91,
3.571,35.28,-25.89,-5.33,5.53,7.30,2.05,
3.572,35.24,-26.00,-5.15,5.53,7.30,2.05,
3.572,35.24,-26.00,-5.15,5.25,7.42,2.23,
3.572,35.24,-26.00,-5.15,4.96,7.55,2.44,
3.573,35.19,-26.12,-4.26,4.96,7.55,2.44,
3.573,35.19,-26.12,-4.26,4.68,7.70,2.66,
3.574,35.14,-26.23,-3.32,4.68,7.70,2.66,
3.574,35.14,-26.23,-3.32,4.45,7.84,2.86,
3.574,35.08,-26.28,-2.58,4.45,7.84,2.86,
3.575,35.08,-26.28,-2.58,4.26,7.98,3.00,
3.575,35.01,-26.33,-1.60,4.26,7.98,3.00,
3.58,34.94,-26.25,-0.50,4.26,7.98,3.00,
3.58,34.94,-26.25,-0.50,4.12,8.11,3.06,
3.584,34.88,-26.03,0.58,4.12,8.11,3.06,
3.585,34.88,-26.03,0.58,4.06,8.21,3.01,
3.595,34.83,-25.74,1.93,4.06,8.21,3.01,
3.596,34.83,-25.74,1.93,4.11,8.26,2.85,
3.597,34.78,-25.57,2.93,4.11,8.26,2.85,
3.597,34.78,-25.57,2.93,4.27,8.24,2.59,
3.598,34.75,-25.61,3.50,4.27,8.24,2.59,
3.6,34.75,-25.61,3.50,4.53,8.14,2.25,
3.603,34.73,-25.84,3.75,4.53,8.14,2.25,
3.604,34.73,-25.84,3.75,4.86,7.98,1.89,
3.618,34.73,-25.84,3.75,5.24,7.78,1.57,
3.619,34.73,-26.11,3.88,5.24,7.78,1.57,
3.619,34.72,-26.61,3.73,5.24,7.78,1.57,
3.62,34.72,-26.61,3.73,5.65,7.52,1.32,
3.62,34.72,-27.22,3.00,5.65,7.52,1.32,
3.621,34.72,-27.22,3.00,6.04,7.24,1.14,
3.626,34.72,-27.22,3.00,6.37,6.98,1.02,
3.627,34.72,-27.74,2.21,6.37,6.98,1.02,
3.628,34.72,-27.74,2.21,6.63,6.78,0.94,
3.628,34.71,-28.28,1.90,6.63,6.78,0.94,
3.633,34.70,-28.86,1.83,6.63,6.78,0.94,
3.634,34.70,-28.86,1.83,6.84,6.63,0.87,
3.637,34.69,-29.55,1.80,6.84,6.63,0.87,
3.638,34.69,-29.55,1.80,7.02,6.54,0.82,
3.642,34.68,-30.09,1.78,7.02,6.54,0.82,
3.643,34.68,-30.09,1.78,7.17,6.51,0.75,
3.647,34.66,-30.51,1.58,7.17,6.51,0.75,
3.648,34.66,-30.51,1.58,7.29,6.55,0.69,
3.652,34.65,-30.89,1.41,7.29,6.55,0.69,
3.652,34.65,-30.89,1.41,7.39,6.64,0.62,
3.657,34.63,-31.25,1.45,7.39,6.64,0.62,
3.658,34.63,-31.25,1.45,7.47,6.76,0.56,
3.662,34.61,-31.70,1.58,7.47,6.76,0.56,
3.663,34.61,-31.70,1.58,7.55,6.88,0.53,
3.667,34.59,-32.17,1.72,7.55,6.88,0.53,
3.668,34.59,-32.17,1.72,7.63,6.99,0.55,
3.672,34.56,-32.74,1.68,7.63,6.99,0.55,
3.672,34.56,-32.74,1.68,7.72,7.08,0.61,
3.681,34.56,-32.74,1.68,7.82,7.16,0.71,
3.682,34.52,-33.31,1.82,7.82,7.16,0.71,
3.682,34.52,-33.31,1.82,7.92,7.22,0.85,
3.683,34.47,-33.96,2.16,7.92,7.22,0.85,
3.688,34.47,-33.96,2.16,8.04,7.27,1.00,
3.689,34.41,-34.45,2.06,8.04,7.27,1.00,
3.706,34.41,-34.45,2.06,8.19,7.29,1.12,
3.707,34.35,-34.67,1.86,8.19,7.29,1.12,
3.708,34.28,-34.64,1.48,8.19,7.29,1.12,
3.708,34.28,-34.64,1.48,8.35,7.24,1.14,
3.709,34.28,-34.64,1.48,8.53,7.15,1.03,
3.709,34.20,-34.76,1.20,8.53,7.15,1.03,
3.71,34.14,-34.95,0.78,8.53,7.15,1.03,
3.71,34.14,-34.95,0.78,8.73,7.00,0.78,
3.711,34.08,-35.13,0.03,8.73,7.00,0.78,
3.711,34.08,-35.13,0.03,8.95,6.79,0.39,
3.716,34.03,-35.21,-1.00,8.95,6.79,0.39,
3.716,34.03,-35.21,-1.00,9.18,6.51,-0.10,
3.72,34.00,-35.22,-1.97,9.18,6.51,-0.10,
3.721,34.00,-35.22,-1.97,9.37,6.21,-0.62,
3.726,33.98,-35.21,-2.93,9.37,6.21,-0.62,
3.727,33.98,-35.21,-2.93,9.51,5.91,-1.11,
3.73,33.97,-35.17,-3.77,9.51,5.91,-1.11,
3.731,33.97,-35.17,-3.77,9.57,5.64,-1.51,
3.735,33.97,-35.06,-4.37,9.57,5.64,-1.51,
3.736,33.97,-35.06,-4.37,9.56,5.41,-1.82,
3.74,33.97,-35.06,-4.37,9.48,5.21,-2.04,
3.741,33.96,-34.69,-4.79,9.48,5.21,-2.04,
3.745,33.96,-34.12,-5.05,9.48,5.21,-2.04,
3.745,33.96,-34.12,-5.05,9.34,5.06,-2.19,
3.75,33.96,-33.44,-5.18,9.34,5.06,-2.19,
3.75,33.96,-33.44,-5.18,9.14,4.99,-2.30,
3.755,33.96,-32.71,-5.42,9.14,4.99,-2.30,
3.755,33.96,-32.71,-5.42,8.90,4.99,-2.37,
3.76,33.96,-32.71,-5.42,8.61,5.03,-2.40,
3.761,33.95,-31.93,-5.55,8.61,5.03,-2.40,
3.765,33.94,-31.29,-5.61,8.61,5.03,-2.40,
3.766,33.94,-31.29,-5.61,8.30,5.13,-2.40,
3.769,33.92,-30.86,-5.75,8.30,5.13,-2.40,
3.77,33.92,-30.86,-5.75,7.97,5.31,-2.39,
3.774,33.89,-30.27,-6.04,7.97,5.31,-2.39,
3.817,33.89,-30.27,-6.04,7.63,5.53,-2.39,
3.817,33.89,-30.27,-6.04,7.29,5.76,-2.39,
3.818,33.85,-29.45,-6.62,7.29,5.76,-2.39,
3.819,33.85,-29.45,-6.62,6.94,5.95,-2.41,
3.82,33.81,-28.67,-7.28,6.94,5.95,-2.41,
3.821,33.81,-28.67,-7.28,6.58,6.08,-2.48,
3.821,33.77,-27.82,-7.83,6.58,6.08,-2.48,
3.822,33.77,-27.82,-7.83,6.22,6.15,-2.60,
3.823,33.73,-26.94,-8.55,6.22,6.15,-2.60,
3.824,33.73,-26.94,-8.55,5.85,6.14,-2.77,
3.824,33.69,-26.03,-9.30,5.85,6.14,-2.77,
3.825,33.69,-26.03,-9.30,5.46,6.09,-2.99,
3.825,33.66,-25.10,-9.88,5.46,6.09,-2.99,
3.826,33.66,-25.10,-9.88,5.07,6.02,-3.24,
3.826,33.64,-24.27,-10.37,5.07,6.02,-3.24,
3.827,33.64,-24.27,-10.37,4.65,5.94,-3.46,
3.828,33.63,-23.57,-10.72,4.65,5.94,-3.46,
3.828,33.63,-23.57,-10.72,4.22,5.82,-3.63,
3.829,33.62,-22.89,-10.62,4.22,5.82,-3.63,
3.829,33.62,-22.89,-10.62,3.79,5.69,-3.75,
3.83,33.24,-22.33,-10.11,3.79,5.69,-3.75,
3.831,33.24,-22.33,-10.11,3.38,5.58,-3.81,
3.831,31.77,-21.83,-9.54,3.38,5.58,-3.81,
3.87,30.54,-21.44,-9.01,3.38,5.58,-3.81,
3.871,30.54,-21.44,-9.01,2.97,5.51,-3.83,
3.871,30.54,-21.44,-9.01,2.58,5.47,-3.80,
3.871,29.73,-21.14,-8.24,2.58,5.47,-3.80,
3.872,29.60,-20.68,-7.18,2.58,5.47,-3.80,
3.873,29.60,-20.68,-7.18,2.21,5.45,-3.75,
3.873,29.60,-20.68,-7.18,1.88,5.45,-3.69,
3.873,30.03,-20.36,-5.99,1.88,5.45,-3.69,
3.874,30.76,-20.37,-4.80,1.88,5.45,-3.69,
3.874,30.76,-20.37,-4.80,1.60,5.48,-3.64,
3.875,30.76,-20.37,-4.80,1.37,5.58,-3.60,
3.875,31.68,-20.71,-3.49,1.37,5.58,-3.60,
3.876,31.68,-20.71,-3.49,1.21,5.72,-3.59,
3.876,32.69,-21.22,-2.07,1.21,5.72,-3.59,
3.876,32.69,-21.22,-2.07,1.12,5.90,-3.59,
3.877,33.74,-21.61,-0.57,1.12,5.90,-3.59,
3.877,33.74,-21.61,-0.57,1.12,6.11,-3.60,
3.878,33.76,-21.57,0.66,1.12,6.11,-3.60,
3.879,33.76,-21.57,0.66,1.20,6.33,-3.64,
3.881,33.79,-21.25,1.60,1.20,6.33,-3.64,
3.881,33.79,-21.25,1.60,1.36,6.50,-3.73,
3.882,33.82,-21.35,2.34,1.36,6.50,-3.73,
3.893,33.82,-21.35,2.34,1.63,6.62,-3.83,
3.894,33.85,-21.99,2.57,1.63,6.62,-3.83,
3.894,33.85,-21.99,2.57,1.97,6.62,-3.88,
3.894,33.90,-22.71,2.15,1.97,6.62,-3.88,
3.899,33.90,-22.71,2.15,2.35,6.56,-3.87,
3.899,33.95,-23.25,1.33,2.35,6.56,-3.87,
3.951,33.95,-23.25,1.33,2.73,6.47,-3.81,
3.952,33.95,-23.25,1.33,3.09,6.35,-3.74,
3.953,34.00,-23.44,0.26,3.09,6.35,-3.74,
3.954,34.05,-23.55,-1.16,3.09,6.35,-3.74,
3.955,34.05,-23.55,-1.16,3.42,6.23,-3.68,
3.956,34.10,-23.79,-2.98,3.42,6.23,-3.68,
3.957,34.15,-24.02,-5.09,3.42,6.23,-3.68,
3.959,34.15,-24.02,-5.09,3.68,6.14,-3.63,
3.96,34.20,-24.11,-7.07,3.68,6.14,-3.63,
3.961,34.20,-24.11,-7.07,3.87,6.07,-3.62,
3.962,34.26,-24.11,-8.66,3.87,6.07,-3.62,
3.962,34.26,-24.11,-8.66,4.00,6.03,-3.62,
3.963,34.31,-24.19,-9.99,4.00,6.03,-3.62,
3.963,34.31,-24.19,-9.99,4.11,6.01,-3.63,
3.964,34.36,-24.30,-11.50,4.11,6.01,-3.63,
3.965,34.36,-24.30,-11.50,4.21,5.99,-3.65,
3.965,34.42,-24.56,-13.47,4.21,5.99,-3.65,
3.966,34.42,-24.56,-13.47,4.33,5.95,-3.68,
3.966,34.48,-25.01,-15.67,4.33,5.95,-3.68,
3.967,34.48,-25.01,-15.67,4.42,5.87,-3.73,
3.968,32.97,-25.22,-17.65,4.42,5.87,-3.73,
3.969,32.97,-25.22,-17.65,4.49,5.76,-3.75,
3.969,30.47,-24.98,-19.25,4.49,5.76,-3.75,
3.97,30.47,-24.98,-19.25,4.52,5.65,-3.75,
3.971,28.42,-24.87,-20.89,4.52,5.65,-3.75,
3.971,28.42,-24.87,-20.89,4.53,5.55,-3.71,
3.972,28.42,-24.87,-20.89,4.51,5.44,-3.66,
3.972,26.32,-25.09,-22.50,4.51,5.44,-3.66,
3.974,23.73,-25.35,-23.73,4.51,5.44,-3.66,
3.975,23.73,-25.35,-23.73,4.45,5.40,-3.59,
3.975,23.73,-25.35,-23.73,4.37,5.41,-3.49,
3.976,21.19,-25.31,-24.51,4.37,5.41,-3.49,
3.986,21.19,-25.31,-24.51,4.30,5.42,-3.33,
3.986,19.04,-25.17,-25.36,4.30,5.42,-3.33,
3.987,17.29,-25.04,-26.53,4.30,5.42,-3.33,
3.988,17.29,-25.04,-26.53,4.24,5.40,-3.14,
3.989,17.29,-25.04,-26.53,4.19,5.34,-2.94,
3.989,15.64,-24.95,-27.87,4.19,5.34,-2.94,
4.002,13.97,-24.65,-28.88,4.19,5.34,-2.94,
4.003,13.97,-24.65,-28.88,4.12,5.23,-2.74,
4.003,13.97,-24.65,-28.88,4.07,5.08,-2.52,
4.004,12.35,-24.18,-30.06,4.07,5.08,-2.52,
4.005,12.35,-24.18,-30.06,4.02,4.87,-2.30,
4.005,11.00,-23.80,-31.45,4.02,4.87,-2.30,
4.02,9.87,-23.32,-33.02,4.02,4.87,-2.30,
4.022,9.87,-23.32,-33.02,3.95,4.65,-2.07,
4.022,8.33,-22.81,-34.59,3.95,4.65,-2.07,
4.023,8.33,-22.81,-34.59,3.84,4.46,-1.86,
4.023,6.53,-22.17,-36.12,3.84,4.46,-1.86,
4.055,6.53,-22.17,-36.12,3.68,4.28,-1.69,
4.056,6.53,-22.17,-36.12,3.48,4.06,-1.49,
4.056,5.03,-21.23,-36.52,3.48,4.06,-1.49,
4.057,5.03,-21.23,-36.52,3.25,3.76,-1.30,
4.057,3.59,-20.27,-36.43,3.25,3.76,-1.30,
4.058,2.06,-19.53,-36.34,3.25,3.76,-1.30,
4.058,2.06,-19.53,-36.34,2.98,3.42,-1.12,
4.058,2.06,-19.53,-36.34,2.67,3.07,-0.95,
4.059,0.61,-18.78,-36.26,2.67,3.07,-0.95,
4.059,-0.80,-18.02,-36.19,2.67,3.07,-0.95,
4.06,-0.80,-18.02,-36.19,2.37,2.73,-0.77,
4.06,-2.08,-17.13,-36.12,2.37,2.73,-0.77,
4.061,-2.08,-17.13,-36.12,2.08,2.39,-0.58,
4.061,-3.54,-16.43,-36.05,2.08,2.39,-0.58,
4.062,-3.54,-16.43,-36.05,1.81,2.04,-0.37,
4.062,-3.54,-16.43,-36.05,1.51,1.74,-0.14,
4.063,-4.98,-15.98,-35.99,1.51,1.74,-0.14,
4.063,-4.98,-15.98,-35.99,1.18,1.50,0.12,
4.063,-6.01,-15.39,-35.93,1.18,1.50,0.12,
4.068,-6.01,-15.39,-35.93,0.88,1.30,0.40,
4.068,-6.84,-14.76,-35.89,0.88,1.30,0.40,
4.075,-7.69,-14.19,-35.84,0.88,1.30,0.40,
4.076,-7.69,-14.19,-35.84,0.64,1.08,0.66,
4.077,-8.61,-13.63,-35.59,0.64,1.08,0.66,
4.078,-8.61,-13.63,-35.59,0.44,0.82,0.92,
4.095,-9.35,-13.04,-34.43,0.44,0.82,0.92,
4.096,-9.35,-13.04,-34.43,0.28,0.53,1.16,
4.096,-9.81,-12.53,-33.30,0.28,0.53,1.16,
4.096,-9.81,-12.53,-33.30,0.19,0.19,1.40,
4.097,-9.81,-12.53,-33.30,0.15,-0.19,1.60,
4.097,-10.18,-12.22,-32.64,0.15,-0.19,1.60,
4.098,-10.18,-12.22,-32.64,0.13,-0.63,1.82,
4.098,-10.26,-12.24,-32.23,0.13,-0.63,1.82,
4.101,-10.26,-12.24,-32.23,0.11,-1.12,2.08,
4.101,-9.69,-12.06,-31.88,0.11,-1.12,2.08,
4.106,-8.16,-11.52,-31.67,0.11,-1.12,2.08,
4.106,-8.16,-11.52,-31.67,0.06,-1.65,2.36,
4.11,-8.16,-11.52,-31.67,-0.03,-2.22,2.63,
4.111,-6.19,-11.04,-31.54,-0.03,-2.22,2.63,
4.115,-4.12,-10.89,-30.99,-0.03,-2.22,2.63,
4.116,-4.12,-10.89,-30.99,-0.18,-2.79,2.85,
4.12,-1.96,-10.91,-29.83,-0.18,-2.79,2.85,
4.121,-1.96,-10.91,-29.83,-0.38,-3.31,3.04,
4.13,-1.96,-10.91,-29.83,-0.59,-3.76,3.19,
4.131,0.16,-10.84,-28.33,-0.59,-3.76,3.19,
4.132,0.16,-10.84,-28.33,-0.81,-4.10,3.30,
4.132,2.00,-10.90,-26.88,-0.81,-4.10,3.30,
4.135,2.00,-10.90,-26.88,-1.03,-4.37,3.39,
4.135,3.42,-11.24,-25.55,-1.03,-4.37,3.39,
4.14,3.42,-11.24,-25.55,-1.25,-4.60,3.46,
4.141,4.54,-11.65,-24.37,-1.25,-4.60,3.46,
4.153,5.59,-11.99,-23.41,-1.25,-4.60,3.46,
4.154,5.59,-11.99,-23.41,-1.46,-4.81,3.55,
4.154,5.59,-11.99,-23.41,-1.67,-4.97,3.66,
4.155,6.45,-12.41,-22.45,-1.67,-4.97,3.66,
4.155,7.29,-12.90,-21.27,-1.67,-4.97,3.66,
4.155,7.29,-12.90,-21.27,-1.88,-5.10,3.78,
4.16,8.26,-13.34,-19.93,-1.88,-5.10,3.78,
4.161,8.26,-13.34,-19.93,-2.08,-5.23,3.92,
4.164,9.40,-13.61,-18.51,-2.08,-5.23,3.92,
4.165,9.40,-13.61,-18.51,-2.23,-5.36,4.08,
4.169,10.57,-13.74,-17.37,-2.23,-5.36,4.08,
4.169,10.57,-13.74,-17.37,-2.32,-5.47,4.24,
4.174,11.76,-13.80,-16.60,-2.32,-5.47,4.24,
4.174,11.76,-13.80,-16.60,-2.37,-5.60,4.39,
4.182,12.79,-13.82,-16.11,-2.37,-5.60,4.39,
4.183,12.79,-13.82,-16.11,-2.41,-5.74,4.52,
4.185,13.71,-13.77,-15.67,-2.41,-5.74,4.52,
4.185,13.71,-13.77,-15.67,-2.44,-5.88,4.67,
4.188,13.71,-13.77,-15.67,-2.48,-6.02,4.82,
4.189,14.73,-13.72,-15.19,-2.48,-6.02,4.82,
4.204,14.73,-13.72,-15.19,-2.52,-6.15,4.98,
4.205,16.15,-13.67,-14.86,-2.52,-6.15,4.98,
4.205,16.15,-13.67,-14.86,-2.57,-6.29,5.14,
4.206,17.90,-13.62,-14.75,-2.57,-6.29,5.14,
4.206,19.72,-13.73,-14.76,-2.57,-6.29,5.14,
4.207,19.72,-13.73,-14.76,-2.65,-6.40,5.26,
4.21,19.72,-13.73,-14.76,-2.75,-6.48,5.36,
4.21,21.78,-13.85,-14.64,-2.75,-6.48,5.36,
4.213,24.29,-13.84,-14.59,-2.75,-6.48,5.36,
4.214,24.29,-13.84,-14.59,-2.88,-6.54,5.43,
4.218,26.74,-13.67,-14.40,-2.88,-6.54,5.43,
4.218,26.74,-13.67,-14.40,-3.04,-6.58,5.45,
4.223,28.91,-13.66,-14.00,-3.04,-6.58,5.45,
4.223,28.91,-13.66,-14.00,-3.22,-6.59,5.42,
4.231,28.91,-13.66,-14.00,-3.41,-6.59,5.35,
4.231,30.84,-13.73,-13.57,-3.41,-6.59,5.35,
4.232,30.84,-13.73,-13.57,-3.61,-6.61,5.25,
4.233,32.72,-13.79,-13.27,-3.61,-6.61,5.25,
4.237,34.42,-13.77,-13.10,-3.61,-6.61,5.25,
4.237,34.42,-13.77,-13.10,-3.81,-6.65,5.13,
4.25,34.65,-13.74,-12.65,-3.81,-6.65,5.13,
4.251,34.65,-13.74,-12.65,-4.03,-6.72,5.02,
4.252,34.70,-13.73,-11.84,-4.03,-6.72,5.02,
4.252,34.70,-13.73,-11.84,-4.25,-6.77,4.90,
4.252,34.70,-13.73,-11.84,-4.46,-6.83,4.77,
4.253,34.74,-13.75,-10.64,-4.46,-6.83,4.77,
4.256,34.80,-13.84,-9.21,-4.46,-6.83,4.77,
4.257,34.80,-13.84,-9.21,-4.64,-6.86,4.64,
4.261,34.86,-13.97,-7.71,-4.64,-6.86,4.64,
4.294,34.86,-13.97,-7.71,-4.78,-6.87,4.50,
4.294,34.92,-14.19,-6.35,-4.78,-6.87,4.50,
4.295,34.92,-14.19,-6.35,-4.86,-6.85,4.36,
4.295,34.99,-14.33,-5.29,-4.86,-6.85,4.36,
4.296,34.99,-14.33,-5.29,-4.90,-6.82,4.25,
4.296,35.06,-14.51,-4.42,-4.90,-6.82,4.25,
4.297,35.06,-14.51,-4.42,-4.93,-6.77,4.15,
4.297,35.12,-14.78,-3.71,-4.93,-6.77,4.15,
4.298,35.12,-14.78,-3.71,-4.94,-6.72,4.08,
4.298,35.18,-15.10,-3.05,-4.94,-6.72,4.08,
4.299,35.18,-15.10,-3.05,-4.95,-6.66,4.03,
4.299,35.24,-15.53,-2.39,-4.95,-6.66,4.03,
4.3,35.24,-15.53,-2.39,-4.94,-6.59,4.01,
4.301,35.30,-16.01,-1.87,-4.94,-6.59,4.01,
4.301,35.30,-16.01,-1.87,-4.92,-6.52,3.99,
4.302,35.35,-16.42,-1.61,-4.92,-6.52,3.99,
4.302,35.35,-16.42,-1.61,-4.88,-6.46,4.01,
4.336,35.40,-16.68,-1.66,-4.88,-6.46,4.01,
4.337,35.40,-16.68,-1.66,-4.85,-6.41,4.05,
4.338,35.45,-16.87,-1.73,-4.85,-6.41,4.05,
4.338,35.45,-16.87,-1.73,-4.83,-6.36,4.12,
4.339,35.45,-16.87,-1.73,-4.83,-6.32,4.20,
4.341,35.49,-16.93,-1.82,-4.83,-6.32,4.20,
4.341,35.52,-16.97,-1.96,-4.83,-6.32,4.20,
4.342,35.52,-16.97,-1.96,-4.85,-6.29,4.27,
4.342,35.55,-16.85,-2.14,-4.85,-6.29,4.27,
4.342,35.55,-16.85,-2.14,-4.87,-6.27,4.30,
4.343,35.55,-16.85,-2.14,-4.89,-6.25,4.27,
4.343,35.58,-16.61,-2.48,-4.89,-6.25,4.27,
4.344,35.61,-16.31,-3.11,-4.89,-6.25,4.27,
4.344,35.61,-16.31,-3.11,-4.94,-6.20,4.13,
4.345,35.64,-15.99,-3.72,-4.94,-6.20,4.13,
4.345,35.64,-15.99,-3.72,-5.02,-6.13,3.91,
4.345,35.64,-15.99,-3.72,-5.16,-6.02,3.63,
4.346,35.68,-15.75,-4.19,-5.16,-6.02,3.63,
4.349,35.71,-15.78,-4.35,-5.16,-6.02,3.63,
4.35,35.71,-15.78,-4.35,-5.34,-5.89,3.32,
4.354,35.71,-15.78,-4.35,-5.54,-5.73,3.00,
4.354,35.75,-16.08,-4.29,-5.54,-5.73,3.00,
4.363,35.79,-16.47,-4.03,-5.54,-5.73,3.00,
4.364,35.79,-16.47,-4.03,-5.75,-5.58,2.71,
4.365,35.83,-16.96,-3.71,-5.75,-5.58,2.71,
4.365,35.83,-16.96,-3.71,-5.95,-5.45,2.47,
4.368,35.83,-16.96,-3.71,-6.15,-5.36,2.30,
4.369,35.86,-17.56,-3.19,-6.15,-5.36,2.30,
4.373,35.86,-17.56,-3.19,-6.31,-5.30,2.17,
4.374,35.90,-18.11,-2.46,-6.31,-5.30,2.17,
4.39,35.90,-18.11,-2.46,-6.44,-5.28,2.08,
4.39,35.93,-18.63,-1.84,-6.44,-5.28,2.08,
4.391,35.93,-18.63,-1.84,-6.53,-5.29,2.00,
4.391,35.96,-19.04,-1.10,-6.53,-5.29,2.00,
4.392,36.00,-19.40,-0.21,-6.53,-5.29,2.00,
4.393,36.00,-19.40,-0.21,-6.58,-5.32,1.90,
4.393,36.03,-19.63,0.80,-6.58,-5.32,1.90,
4.394,36.03,-19.63,0.80,-6.60,-5.38,1.79,
4.398,36.06,-19.90,1.77,-6.60,-5.38,1.79,
4.399,36.06,-19.90,1.77,-6.56,-5.47,1.68,
4.402,36.06,-19.90,1.77,-6.46,-5.58,1.56,
4.403,36.09,-20.19,2.85,-6.46,-5.58,1.56,
4.407,36.09,-20.19,2.85,-6.32,-5.73,1.44,
4.408,36.13,-20.41,4.00,-6.32,-5.73,1.44,
4.412,36.17,-20.67,4.77,-6.32,-5.73,1.44,
4.413,36.17,-20.67,4.77,-6.12,-5.89,1.32,
4.417,36.22,-20.91,5.26,-6.12,-5.89,1.32,
4.418,36.22,-20.91,5.26,-5.89,-6.07,1.20,
4.421,36.27,-21.19,5.68,-5.89,-6.07,1.20,
4.422,36.27,-21.19,5.68,-5.65,-6.26,1.11,
4.427,36.27,-21.19,5.68,-5.40,-6.46,1.06,
4.427,36.15,-21.52,5.73,-5.40,-6.46,1.06,
4.431,35.57,-21.87,5.80,-5.40,-6.46,1.06,
4.432,35.57,-21.87,5.80,-5.17,-6.68,1.04,
4.436,35.22,-22.14,5.84,-5.17,-6.68,1.04,
4.437,35.22,-22.14,5.84,-4.94,-6.88,1.06,
4.451,35.22,-22.14,5.84,-4.72,-7.05,1.10,
4.452,35.49,-22.40,5.71,-4.72,-7.05,1.10,
4.454,36.29,-22.42,5.45,-4.72,-7.05,1.10,
4.455,36.29,-22.42,5.45,-4.51,-7.21,1.14,
4.455,36.56,-22.38,5.05,-4.51,-7.21,1.14,
4.456,36.56,-22.38,5.05,-4.34,-7.33,1.15,
4.457,36.56,-22.38,5.05,-4.20,-7.44,1.12,
4.458,36.60,-22.39,4.50,-4.20,-7.44,1.12,
4.479,36.60,-22.39,4.50,-4.11,-7.54,1.06,
4.48,36.65,-22.53,4.06,-4.11,-7.54,1.06,
4.481,36.69,-22.70,3.88,-4.11,-7.54,1.06,
4.482,36.69,-22.70,3.88,-4.07,-7.64,0.99,
4.482,36.69,-22.70,3.88,-4.04,-7.72,0.94,
4.483,36.74,-23.00,3.93,-4.04,-7.72,0.94,
4.483,36.79,-23.44,4.31,-4.04,-7.72,0.94,
4.484,36.79,-23.44,4.31,-4.02,-7.80,0.90,
4.485,36.83,-23.95,4.55,-4.02,-7.80,0.90,
4.485,36.83,-23.95,4.55,-3.99,-7.86,0.91,
4.486,36.83,-23.95,4.55,-3.94,-7.93,0.93,
4.486,36.88,-24.36,4.75,-3.94,-7.93,0.93,
4.49,36.88,-24.36,4.75,-3.89,-7.99,0.99,
4.491,36.91,-24.65,4.70,-3.89,-7.99,0.99,
4.495,36.91,-24.65,4.70,-3.84,-8.04,1.08,
4.496,36.94,-24.77,4.66,-3.84,-8.04,1.08,
4.5,36.94,-24.77,4.66,-3.80,-8.09,1.20,
4.501,36.95,-24.90,4.47,-3.80,-8.09,1.20,
4.505,36.95,-24.90,4.47,-3.78,-8.13,1.36,
4.541,36.98,-25.15,4.08,-3.78,-8.13,1.36,
4.542,36.99,-25.29,3.77,-3.78,-8.13,1.36,
4.543,36.99,-25.29,3.77,-3.79,-8.15,1.53,
4.543,36.99,-25.29,3.77,-3.82,-8.15,1.70,
4.544,36.98,-25.43,3.61,-3.82,-8.15,1.70,
4.544,36.98,-25.43,3.61,-3.89,-8.14,1.84,
4.545,36.97,-25.47,3.56,-3.89,-8.14,1.84,
4.545,36.95,-25.42,3.56,-3.89,-8.14,1.84,
4.546,36.95,-25.42,3.56,-3.97,-8.11,1.95,
4.546,36.95,-25.42,3.56,-4.05,-8.05,2.03,
4.547,36.92,-25.40,3.66,-4.05,-8.05,2.03,
4.547,36.92,-25.40,3.66,-4.13,-7.99,2.07,
4.548,36.89,-25.50,3.76,-4.13,-7.99,2.07,
4.548,36.85,-25.62,3.82,-4.13,-7.99,2.07,
4.549,36.85,-25.62,3.82,-4.20,-7.90,2.07,
4.549,36.85,-25.62,3.82,-4.26,-7.80,2.04,
4.55,36.81,-25.70,4.09,-4.26,-7.80,2.04,
4.551,36.76,-25.73,4.37,-4.26,-7.80,2.04,
4.551,36.76,-25.73,4.37,-4.29,-7.73,1.99,
4.557,36.72,-25.84,4.40,-4.29,-7.73,1.99,
4.557,36.72,-25.84,4.40,-4.30,-7.68,1.93,
4.559,36.67,-25.92,4.44,-4.30,-7.68,1.93,
4.561,36.67,-25.92,4.44,-4.31,-7.66,1.87,
4.564,36.63,-26.01,4.59,-4.31,-7.66,1.87,
4.564,36.63,-26.01,4.59,-4.30,-7.67,1.82,
4.569,36.58,-26.17,4.76,-4.30,-7.67,1.82,
4.569,36.58,-26.17,4.76,-4.29,-7.70,1.78,
4.573,36.53,-26.28,4.98,-4.29,-7.70,1.78,
4.574,36.53,-26.28,4.98,-4.26,-7.76,1.76,
4.581,36.48,-26.21,5.24,-4.26,-7.76,1.76,
4.582,36.48,-26.21,5.24,-4.23,-7.84,1.78,
4.583,36.42,-26.00,5.24,-4.23,-7.84,1.78,
4.584,36.42,-26.00,5.24,-4.20,-7.90,1.83,
4.588,36.42,-26.00,5.24,-4.18,-7.89,1.90,
4.588,36.36,-25.91,5.01,-4.18,-7.89,1.90,
4.6,36.29,-25.82,4.68,-4.18,-7.89,1.90,
4.601,36.29,-25.82,4.68,-4.17,-7.80,1.98,
4.601,36.22,-25.70,4.12,-4.17,-7.80,1.98,
4.602,36.22,-25.70,4.12,-4.20,-7.67,2.06,
4.603,36.14,-25.71,3.13,-4.20,-7.67,2.06,
4.604,36.14,-25.71,3.13,-4.28,-7.53,2.11,
4.607,36.14,-25.71,3.13,-4.43,-7.37,2.17,
4.608,36.05,-25.80,2.35,-4.43,-7.37,2.17,
4.612,36.05,-25.80,2.35,-4.65,-7.18,2.23,
4.613,35.96,-26.53,1.45,-4.65,-7.18,2.23,
4.617,35.96,-26.53,1.45,-4.96,-6.95,2.32,
4.617,35.87,-27.71,0.65,-4.96,-6.95,2.32,
4.622,35.76,-29.15,0.29,-4.96,-6.95,2.32,
4.622,35.76,-29.15,0.29,-5.35,-6.67,2.40,
4.627,35.65,-30.47,0.58,-5.35,-6.67,2.40,
4.628,35.65,-30.47,0.58,-5.82,-6.42,2.44,
4.631,35.65,-30.47,0.58,-6.33,-6.21,2.43,
4.632,35.54,-31.55,1.55,-6.33,-6.21,2.43,
4.637,35.54,-31.55,1.55,-6.85,-6.00,2.35,
4.637,35.43,-32.25,3.13,-6.85,-6.00,2.35,
4.643,35.43,-32.25,3.13,-7.37,-5.79,2.21,
4.644,35.31,-32.87,5.25,-7.37,-5.79,2.21,
4.647,35.20,-33.56,7.70,-7.37,-5.79,2.21,
4.648,35.20,-33.56,7.70,-7.85,-5.58,2.02,
4.652,35.09,-34.21,10.80,-7.85,-5.58,2.02,
4.652,35.09,-34.21,10.80,-8.28,-5.36,1.78,
4.656,34.99,-34.71,14.52,-8.28,-5.36,1.78,
4.657,34.99,-34.71,14.52,-8.61,-5.12,1.48,
4.661,34.90,-34.83,18.66,-8.61,-5.12,1.48,
4.663,34.90,-34.83,18.66,-8.81,-4.85,1.12,
4.666,34.82,-34.46,22.83,-8.81,-4.85,1.12,
4.668,34.82,-34.46,22.83,-8.83,-4.55,0.73,
4.671,34.75,-33.94,26.29,-8.83,-4.55,0.73,
4.672,34.75,-33.94,26.29,-8.66,-4.22,0.32,
4.684,34.68,-33.36,28.80,-8.66,-4.22,0.32,
4.685,34.68,-33.36,28.80,-8.30,-3.89,-0.09,
4.686,34.68,-33.36,28.80,-7.80,-3.60,-0.47,
4.687,34.63,-32.68,30.19,-7.80,-3.60,-0.47,
4.688,34.59,-31.93,30.57,-7.80,-3.60,-0.47,
4.688,34.59,-31.93,30.57,-7.19,-3.40,-0.82,
4.691,34.59,-31.93,30.57,-6.54,-3.32,-1.10,
4.692,34.56,-31.16,30.04,-6.54,-3.32,-1.10,
4.717,34.53,-30.42,28.89,-6.54,-3.32,-1.10,
4.718,34.53,-30.42,28.89,-5.87,-3.34,-1.33,
4.719,33.48,-29.83,27.26,-5.87,-3.34,-1.33,
4.72,33.48,-29.83,27.26,-5.22,-3.46,-1.46,
4.721,31.10,-29.29,25.37,-5.22,-3.46,-1.46,
4.721,31.10,-29.29,25.37,-4.62,-3.65,-1.51,
4.722,29.06,-28.70,23.46,-4.62,-3.65,-1.51,
4.723,29.06,-28.70,23.46,-4.10,-3.91,-1.50,
4.724,29.06,-28.70,23.46,-3.65,-4.22,-1.43,
4.724,27.54,-28.03,21.64,-3.65,-4.22,-1.43,
4.725,27.54,-28.03,21.64,-3.29,-4.56,-1.31,
4.726,26.61,-27.37,19.90,-3.29,-4.56,-1.31,
4.727,26.18,-26.86,18.36,-3.29,-4.56,-1.31,
4.728,26.18,-26.86,18.36,-3.02,-4.85,-1.17,
4.733,25.98,-26.27,17.14,-3.02,-4.85,-1.17,
4.734,25.98,-26.27,17.14,-2.82,-5.07,-1.02,
4.736,25.98,-26.27,17.14,-2.70,-5.21,-0.87,
4.736,25.91,-25.72,16.22,-2.70,-5.21,-0.87,
4.74,25.91,-25.72,16.22,-2.61,-5.28,-0.73,
4.74,25.89,-25.09,15.20,-2.61,-5.28,-0.73,
4.747,25.89,-25.09,15.20,-2.58,-5.30,-0.60,
4.748,26.11,-24.63,14.23,-2.58,-5.30,-0.60,
4.75,26.11,-24.63,14.23,-2.58,-5.29,-0.49,
4.792,26.43,-24.23,13.15,-2.58,-5.29,-0.49,
4.793,26.76,-23.78,12.15,-2.58,-5.29,-0.49,
4.794,26.76,-23.78,12.15,-2.64,-5.26,-0.40,
4.795,27.09,-23.39,11.23,-2.64,-5.26,-0.40,
4.796,27.09,-23.39,11.23,-2.75,-5.21,-0.34,
4.797,27.09,-23.39,11.23,-2.90,-5.16,-0.30,
4.798,27.42,-23.05,10.54,-2.90,-5.16,-0.30,
4.799,27.77,-22.89,10.11,-2.90,-5.16,-0.30,
4.799,27.77,-22.89,10.11,-3.08,-5.11,-0.28,
4.8,28.06,-22.92,9.77,-3.08,-5.11,-0.28,
4.801,28.06,-22.92,9.77,-3.29,-5.06,-0.27,
4.802,28.49,-23.07,9.48,-3.29,-5.06,-0.27,
4.802,28.49,-23.07,9.48,-3.50,-5.01,-0.26,
4.803,28.49,-23.07,9.48,-3.71,-4.95,-0.26,
4.803,28.99,-23.25,9.46,-3.71,-4.95,-0.26,
4.804,29.52,-23.40,9.37,-3.71,-4.95,-0.26,
4.805,29.52,-23.40,9.37,-3.93,-4.88,-0.26,
4.805,30.01,-23.34,9.42,-3.93,-4.88,-0.26,
4.806,30.01,-23.34,9.42,-4.15,-4.83,-0.29,
4.807,30.50,-23.37,9.50,-4.15,-4.83,-0.29,
4.807,30.50,-23.37,9.50,-4.36,-4.80,-0.34,
4.808,30.91,-23.54,9.63,-4.36,-4.80,-0.34,
4.809,30.91,-23.54,9.63,-4.57,-4.80,-0.41,
4.809,30.91,-23.54,9.63,-4.76,-4.82,-0.50,
4.81,31.36,-23.88,9.75,-4.76,-4.82,-0.50,
4.849,31.54,-24.24,9.96,-4.76,-4.82,-0.50,
4.85,31.54,-24.24,9.96,-4.94,-4.86,-0.60,
4.85,31.54,-24.24,9.96,-5.10,-4.91,-0.71,
4.851,31.53,-24.48,10.25,-5.10,-4.91,-0.71,
4.852,31.53,-24.48,10.25,-5.22,-5.00,-0.82,
4.852,31.47,-24.68,10.45,-5.22,-5.00,-0.82,
4.853,31.31,-24.96,10.31,-5.22,-5.00,-0.82,
4.853,31.31,-24.96,10.31,-5.32,-5.12,-0.93,
4.854,31.12,-25.18,9.84,-5.32,-5.12,-0.93,
4.856,31.12,-25.18,9.84,-5.40,-5.28,-1.03,
4.857,30.78,-25.41,9.19,-5.40,-5.28,-1.03,
4.857,30.78,-25.41,9.19,-5.48,-5.50,-1.13,
4.858,30.78,-25.41,9.19,-5.57,-5.75,-1.21,
4.858,30.52,-25.57,8.55,-5.57,-5.75,-1.21,
4.859,30.36,-25.90,8.05,-5.57,-5.75,-1.21,
4.859,30.36,-25.90,8.05,-5.66,-6.05,-1.27,
4.86,30.36,-25.90,8.05,-5.76,-6.35,-1.30,
4.86,30.45,-26.40,7.55,-5.76,-6.35,-1.30,
4.861,30.69,-27.01,7.04,-5.76,-6.35,-1.30,
4.862,30.69,-27.01,7.04,-5.86,-6.66,-1.32,
4.863,30.69,-27.01,7.04,-5.96,-6.96,-1.32,
4.864,30.99,-27.59,6.73,-5.96,-6.96,-1.32,
4.868,30.99,-27.59,6.73,-6.07,-7.24,-1.31,
4.868,31.38,-28.14,6.56,-6.07,-7.24,-1.31,
4.871,31.38,-28.14,6.56,-6.18,-7.51,-1.27,
4.872,31.91,-28.68,6.42,-6.18,-7.51,-1.27,
4.876,32.11,-29.25,6.41,-6.18,-7.51,-1.27,
4.877,32.11,-29.25,6.41,-6.30,-7.75,-1.22,
4.884,32.11,-29.25,6.41,-6.42,-7.96,-1.16,
4.885,32.04,-29.80,6.41,-6.42,-7.96,-1.16,
4.886,32.04,-29.80,6.41,-6.54,-8.14,-1.09,
4.888,31.98,-30.26,6.48,-6.54,-8.14,-1.09,
4.891,31.91,-30.65,6.62,-6.54,-8.14,-1.09,
4.892,31.91,-30.65,6.62,-6.66,-8.29,-1.03,
4.91,31.85,-31.01,6.67,-6.66,-8.29,-1.03,
4.912,31.85,-31.01,6.67,-6.79,-8.38,-0.97,
4.912,31.80,-31.40,6.65,-6.79,-8.38,-0.97,
4.913,31.80,-31.40,6.65,-6.91,-8.42,-0.94,
4.913,31.75,-31.88,6.74,-6.91,-8.42,-0.94,
4.913,31.75,-31.88,6.74,-7.05,-8.41,-0.92,
4.914,31.70,-32.44,6.82,-7.05,-8.41,-0.92,
4.915,31.70,-32.44,6.82,-7.20,-8.34,-0.94,
4.915,31.70,-32.44,6.82,-7.36,-8.21,-0.97,
4.915,31.66,-32.99,6.91,-7.36,-8.21,-0.97,
4.92,31.63,-33.54,6.77,-7.36,-8.21,-0.97,
4.921,31.63,-33.54,6.77,-7.53,-8.00,-1.00,
4.925,31.60,-34.11,6.61,-7.53,-8.00,-1.00,
4.926,31.60,-34.11,6.61,-7.71,-7.73,-1.03,
4.935,31.60,-34.11,6.61,-7.92,-7.39,-1.06,
4.936,31.57,-34.67,6.33,-7.92,-7.39,-1.06,
4.937,31.55,-35.10,5.99,-7.92,-7.39,-1.06,
4.937,31.55,-35.10,5.99,-8.14,-7.04,-1.10,
4.939,31.55,-35.10,5.99,-8.39,-6.70,-1.13,
4.94,31.53,-35.67,5.52,-8.39,-6.70,-1.13,
4.944,31.53,-35.67,5.52,-8.67,-6.36,-1.16,
4.945,31.52,-36.32,5.09,-8.67,-6.36,-1.16,
4.949,31.52,-36.32,5.09,-8.96,-6.04,-1.18,
4.95,31.50,-37.07,4.86,-8.96,-6.04,-1.18,
4.954,31.50,-37.07,4.86,-9.26,-5.72,-1.21,
4.955,31.49,-37.91,4.69,-9.26,-5.72,-1.21,
4.959,31.48,-38.64,4.42,-9.26,-5.72,-1.21,
4.96,31.48,-38.64,4.42,-9.59,-5.38,-1.23,
4.964,31.47,-39.32,4.39,-9.59,-5.38,-1.23,
4.965,31.47,-39.32,4.39,-9.91,-5.05,-1.26,
4.969,31.45,-40.09,4.46,-9.91,-5.05,-1.26,
4.97,31.45,-40.09,4.46,-10.24,-4.71,-1.28,
4.974,31.44,-40.95,4.63,-10.24,-4.71,-1.28,
4.974,31.44,-40.95,4.63,-10.57,-4.35,-1.32,
4.984,31.44,-40.95,4.63,-10.88,-3.98,-1.37,
4.985,31.42,-41.82,5.31,-10.88,-3.98,-1.37,
4.986,31.42,-41.82,5.31,-11.18,-3.56,-1.43,
4.986,31.41,-42.44,6.44,-11.18,-3.56,-1.43,
4.988,31.41,-42.44,6.44,-11.42,-3.09,-1.51,
4.989,31.40,-42.78,7.87,-11.42,-3.09,-1.51,
5.009,31.40,-42.78,7.87,-11.58,-2.59,-1.60,
5.041,31.38,-42.71,9.48,-11.58,-2.59,-1.60,
5.042,31.38,-42.71,9.48,-11.63,-2.10,-1.70,
5.042,30.09,-42.23,11.26,-11.63,-2.10,-1.70,
5.043,28.58,-41.36,13.11,-11.63,-2.10,-1.70,
5.044,28.58,-41.36,13.11,-11.56,-1.64,-1.80,
5.044,27.14,-40.23,14.75,-11.56,-1.64,-1.80,
5.045,27.14,-40.23,14.75,-11.35,-1.27,-1.91,
5.045,25.91,-38.94,16.06,-11.35,-1.27,-1.91,
5.046,25.91,-38.94,16.06,-11.00,-1.01,-2.05,
5.046,24.82,-37.55,17.18,-11.00,-1.01,-2.05,
5.047,24.82,-37.55,17.18,-10.54,-0.87,-2.20,
5.047,23.77,-36.18,18.03,-10.54,-0.87,-2.20,
5.048,23.77,-36.18,18.03,-9.96,-0.85,-2.37,
5.049,22.82,-34.89,18.71,-9.96,-0.85,-2.37,
5.049,22.82,-34.89,18.71,-9.29,-0.96,-2.55,
5.049,21.87,-33.65,19.34,-9.29,-0.96,-2.55,
5.05,21.87,-33.65,19.34,-8.53,-1.20,-2.72,
5.051,20.86,-32.54,19.73,-8.53,-1.20,-2.72,
5.051,20.86,-32.54,19.73,-7.70,-1.56,-2.88,
5.052,19.73,-31.46,19.94,-7.70,-1.56,-2.88,
5.052,19.73,-31.46,19.94,-6.83,-2.02,-3.02,
5.053,18.45,-30.34,20.03,-6.83,-2.02,-3.02,
5.053,18.45,-30.34,20.03,-5.93,-2.58,-3.14,
5.054,17.05,-29.28,19.84,-5.93,-2.58,-3.14,
5.054,17.05,-29.28,19.84,-5.02,-3.20,-3.24,
5.059,15.54,-28.26,19.47,-5.02,-3.20,-3.24,
5.06,15.54,-28.26,19.47,-4.12,-3.87,-3.28,
5.068,13.76,-27.18,18.98,-4.12,-3.87,-3.28,
5.069,13.76,-27.18,18.98,-3.25,-4.55,-3.28,
5.069,11.96,-26.21,18.23,-3.25,-4.55,-3.28,
5.07,11.96,-26.21,18.23,-2.44,-5.21,-3.21,
5.071,11.96,-26.21,18.23,-1.69,-5.80,-3.06,
5.072,10.59,-25.38,17.36,-1.69,-5.80,-3.06,
5.076,10.59,-25.38,17.36,-1.02,-6.31,-2.85,
5.077,9.72,-24.72,16.47,-1.02,-6.31,-2.85,
5.09,9.72,-24.72,16.47,-0.43,-6.73,-2.61,
5.091,9.29,-24.22,15.49,-0.43,-6.73,-2.61,
5.092,9.29,-24.22,15.49,0.07,-7.03,-2.35,
5.092,9.06,-23.76,14.30,0.07,-7.03,-2.35,
5.093,9.06,-23.76,14.30,0.48,-7.22,-2.12,
5.093,8.87,-23.22,12.93,0.48,-7.22,-2.12,
5.113,8.64,-22.74,11.33,0.48,-7.22,-2.12,
5.114,8.64,-22.74,11.33,0.76,-7.29,-1.89,
5.114,8.64,-22.74,11.33,0.93,-7.26,-1.68,
5.115,8.42,-22.41,9.68,0.93,-7.26,-1.68,
5.115,8.42,-22.41,9.68,0.96,-7.12,-1.48,
5.116,8.40,-22.16,8.08,0.96,-7.12,-1.48,
5.116,8.40,-22.16,8.08,0.87,-6.91,-1.28,
5.117,8.39,-21.85,6.74,0.87,-6.91,-1.28,
5.117,8.20,-21.62,5.72,0.87,-6.91,-1.28,
5.118,8.20,-21.62,5.72,0.69,-6.63,-1.10,
5.12,7.90,-21.40,5.10,0.69,-6.63,-1.10,
5.121,7.90,-21.40,5.10,0.43,-6.32,-0.92,
5.125,7.39,-21.27,4.85,0.43,-6.32,-0.92,
5.126,7.39,-21.27,4.85,0.13,-5.98,-0.75,
5.13,7.13,-21.12,4.63,0.13,-5.98,-0.75,
5.131,7.13,-21.12,4.63,-0.19,-5.64,-0.56,
5.135,6.63,-20.96,4.54,-0.19,-5.64,-0.56,
5.136,6.63,-20.96,4.54,-0.52,-5.34,-0.37,
5.14,6.00,-20.75,4.70,-0.52,-5.34,-0.37,
5.14,6.00,-20.75,4.70,-0.84,-5.08,-0.18,
5.15,5.49,-20.50,5.09,-0.84,-5.08,-0.18,
5.151,5.49,-20.50,5.09,-1.14,-4.87,0.04,
5.151,5.20,-20.15,5.60,-1.14,-4.87,0.04,
5.152,5.20,-20.15,5.60,-1.40,-4.71,0.27,
5.154,5.20,-20.15,5.60,-1.62,-4.59,0.51,
5.155,5.21,-19.74,6.12,-1.62,-4.59,0.51,
5.16,5.21,-19.74,6.12,-1.81,-4.51,0.75,
5.16,5.45,-19.38,6.59,-1.81,-4.51,0.75,
5.176,5.45,-19.38,6.59,-1.96,-4.44,0.96,
5.177,5.85,-18.96,7.05,-1.96,-4.44,0.96,
5.178,5.85,-18.96,7.05,-2.08,-4.38,1.14,
5.179,6.33,-18.48,7.52,-2.08,-4.38,1.14,
5.18,6.83,-18.08,7.97,-2.08,-4.38,1.14,
5.18,6.83,-18.08,7.97,-2.19,-4.30,1.30,
5.181,6.83,-18.08,7.97,-2.27,-4.21,1.42,
5.181,7.25,-17.63,8.33,-2.27,-4.21,1.42,
5.185,7.25,-17.63,8.33,-2.35,-4.13,1.51,
5.186,7.74,-17.14,8.73,-2.35,-4.13,1.51,
5.189,7.74,-17.14,8.73,-2.41,-4.05,1.56,
5.19,8.33,-16.64,8.98,-2.41,-4.05,1.56,
5.194,8.33,-16.64,8.98,-2.47,-3.98,1.58,
5.194,9.00,-16.20,9.15,-2.47,-3.98,1.58,
5.198,9.38,-15.80,9.34,-2.47,-3.98,1.58,
5.199,9.38,-15.80,9.34,-2.52,-3.92,1.56,
5.203,9.38,-15.80,9.34,-2.56,-3.88,1.50,
5.204,9.57,-15.39,9.49,-2.56,-3.88,1.50,
5.208,9.57,-15.39,9.49,-2.61,-3.86,1.44,
5.209,9.47,-15.07,9.60,-2.61,-3.86,1.44,
5.218,9.09,-14.91,9.77,-2.61,-3.86,1.44,
5.219,9.09,-14.91,9.77,-2.66,-3.86,1.37,
5.219,8.66,-14.83,9.99,-2.66,-3.86,1.37,
5.22,8.66,-14.83,9.99,-2.72,-3.86,1.32,
5.223,8.66,-14.83,9.99,-2.78,-3.87,1.29,
5.223,8.21,-14.80,10.40,-2.78,-3.87,1.29,
5.244,7.82,-14.75,10.94,-2.78,-3.87,1.29,
5.245,7.82,-14.75,10.94,-2.83,-3.89,1.29,
5.246,7.33,-14.68,11.50,-2.83,-3.89,1.29,
5.247,7.33,-14.68,11.50,-2.87,-3.94,1.30,
5.247,6.68,-14.56,12.08,-2.87,-3.94,1.30,
5.284,6.68,-14.56,12.08,-2.89,-4.01,1.33,
5.284,6.68,-14.56,12.08,-2.90,-4.10,1.40,
5.285,6.13,-14.40,12.58,-2.90,-4.10,1.40,
5.285,6.13,-14.40,12.58,-2.91,-4.22,1.51,
5.286,5.70,-13.99,13.12,-2.91,-4.22,1.51,
5.286,5.70,-13.99,13.12,-2.90,-4.35,1.64,
5.287,5.48,-13.43,13.78,-2.90,-4.35,1.64,
5.288,5.48,-13.43,13.78,-2.89,-4.48,1.78,
5.288,5.48,-12.90,14.68,-2.89,-4.48,1.78,
5.289,5.80,-12.48,15.85,-2.89,-4.48,1.78,
5.289,5.80,-12.48,15.85,-2.88,-4.60,1.93,
5.29,5.80,-12.48,15.85,-2.83,-4.67,2.09,
5.291,6.56,-11.98,17.31,-2.83,-4.67,2.09,
5.291,6.56,-11.98,17.31,-2.75,-4.71,2.22,
5.292,7.57,-11.08,18.99,-2.75,-4.71,2.22,
5.292,7.57,-11.08,18.99,-2.61,-4.69,2.32,
5.293,8.56,-9.90,20.76,-2.61,-4.69,2.32,
5.294,9.45,-8.67,22.36,-2.61,-4.69,2.32,
5.294,9.45,-8.67,22.36,-2.42,-4.60,2.38,
5.295,10.14,-7.44,23.74,-2.42,-4.60,2.38,
5.295,10.14,-7.44,23.74,-2.19,-4.46,2.40,
5.296,10.14,-7.44,23.74,-1.92,-4.27,2.38,
5.297,10.68,-6.27,24.80,-1.92,-4.27,2.38,
5.297,10.68,-6.27,24.80,-1.63,-4.04,2.33,
5.298,11.17,-5.15,25.36,-1.63,-4.04,2.33,
5.333,11.17,-5.15,25.36,-1.33,-3.78,2.27,
5.334,11.56,-4.14,25.41,-1.33,-3.78,2.27,
5.336,11.56,-4.14,25.41,-1.04,-3.51,2.19,
5.336,11.88,-3.12,25.12,-1.04,-3.51,2.19,
5.337,11.88,-3.12,25.12,-0.77,-3.24,2.08,
5.337,11.98,-2.19,24.57,-0.77,-3.24,2.08,
5.338,11.90,-1.37,23.92,-0.77,-3.24,2.08,
5.338,11.90,-1.37,23.92,-0.54,-3.00,1.96,
5.339,11.90,-1.37,23.92,-0.34,-2.79,1.82,
5.339,11.62,-0.74,23.19,-0.34,-2.79,1.82,
5.339,11.09,-0.24,22.42,-0.34,-2.79,1.82,
5.34,11.09,-0.24,22.42,-0.18,-2.60,1.69,
5.341,10.35,0.10,21.67,-0.18,-2.60,1.69,
5.341,10.35,0.10,21.67,-0.05,-2.43,1.57,
5.341,10.35,0.10,21.67,0.05,-2.26,1.46,
5.342,9.85,0.35,21.06,0.05,-2.26,1.46,
5.342,9.27,0.63,20.56,0.05,-2.26,1.46,
5.343,9.27,0.63,20.56,0.12,-2.10,1.38,
5.345,9.27,0.63,20.56,0.17,-1.94,1.31,
5.348,8.41,0.98,19.95,0.17,-1.94,1.31,
5.35,8.41,0.98,19.95,0.20,-1.77,1.27,
5.35,7.67,1.12,19.33,0.20,-1.77,1.27,
5.354,7.19,1.04,18.72,0.20,-1.77,1.27,
5.355,7.19,1.04,18.72,0.21,-1.61,1.26,
5.359,6.91,0.83,18.23,0.21,-1.61,1.26,
5.36,6.91,0.83,18.23,0.20,-1.46,1.28,
5.365,6.72,0.71,17.85,0.20,-1.46,1.28,
5.365,6.72,0.71,17.85,0.19,-1.32,1.32,
5.369,6.52,0.79,17.57,0.19,-1.32,1.32,
5.37,6.52,0.79,17.57,0.18,-1.20,1.37,
5.374,6.43,0.87,17.37,0.18,-1.20,1.37,
5.374,6.43,0.87,17.37,0.17,-1.09,1.42,
5.384,6.45,0.93,17.26,0.17,-1.09,1.42,
5.385,6.45,0.93,17.26,0.18,-1.00,1.49,
5.385,6.69,1.10,17.24,0.18,-1.00,1.49,
5.385,6.69,1.10,17.24,0.20,-0.95,1.55,
5.388,6.69,1.10,17.24,0.25,-0.92,1.61,
5.389,7.02,1.33,17.22,0.25,-0.92,1.61,
5.393,7.02,1.33,17.22,0.31,-0.89,1.67,
5.394,7.55,1.63,17.21,0.31,-0.89,1.67,
5.412,8.24,1.94,17.14,0.31,-0.89,1.67,
5.413,8.24,1.94,17.14,0.37,-0.85,1.71,
5.414,8.24,1.94,17.14,0.44,-0.79,1.73,
5.414,8.93,2.37,17.13,0.44,-0.79,1.73,
5.414,8.93,2.37,17.13,0.52,-0.72,1.72,
5.415,9.66,2.87,17.13,0.52,-0.72,1.72,
5.415,10.49,3.31,17.15,0.52,-0.72,1.72,
5.416,10.49,3.31,17.15,0.60,-0.62,1.69,
5.418,11.35,3.70,17.10,0.60,-0.62,1.69,
5.418,11.35,3.70,17.10,0.69,-0.51,1.62,
5.422,12.03,4.18,16.76,0.69,-0.51,1.62,
5.423,12.03,4.18,16.76,0.79,-0.40,1.54,
5.427,12.75,4.72,16.19,0.79,-0.40,1.54,
5.427,12.75,4.72,16.19,0.88,-0.30,1.43,
5.436,13.55,5.25,15.68,0.88,-0.30,1.43,
5.437,13.55,5.25,15.68,0.95,-0.18,1.30,
5.437,14.24,5.65,15.27,0.95,-0.18,1.30,
5.438,14.24,5.65,15.27,1.00,-0.06,1.14,
5.442,14.24,5.65,15.27,1.05,0.06,0.95,
5.443,14.65,5.92,14.91,1.05,0.06,0.95,
5.46,14.65,5.92,14.91,1.08,0.19,0.74,
5.462,14.68,5.98,14.49,1.08,0.19,0.74,
5.464,14.42,5.93,14.16,1.08,0.19,0.74,
5.464,14.42,5.93,14.16,1.10,0.31,0.53,
5.464,14.42,5.93,14.16,1.12,0.44,0.35,
5.465,14.05,5.86,13.98,1.12,0.44,0.35,
5.465,14.05,5.86,13.98,1.13,0.57,0.18,
5.465,13.46,5.81,13.92,1.13,0.57,0.18,
5.467,13.46,5.81,13.92,1.14,0.70,0.05,
5.468,12.95,5.68,13.92,1.14,0.70,0.05,
5.471,12.62,5.55,13.93,1.14,0.70,0.05,
5.472,12.62,5.55,13.93,1.17,0.79,-0.07,
5.476,12.62,5.55,13.93,1.22,0.85,-0.16,
5.476,12.40,5.28,13.94,1.22,0.85,-0.16,
5.484,12.34,4.94,14.03,1.22,0.85,-0.16,
5.521,12.34,4.94,14.03,1.28,0.90,-0.23,
5.521,12.40,4.60,14.14,1.28,0.90,-0.23,
5.521,12.40,4.60,14.14,1.36,0.95,-0.30,
5.522,12.47,4.32,14.19,1.36,0.95,-0.30,
5.522,12.47,4.32,14.19,1.47,0.98,-0.36,
5.522,12.64,3.99,14.19,1.47,0.98,-0.36,
5.523,12.64,3.99,14.19,1.58,1.02,-0.42,
5.523,12.64,3.99,14.19,1.71,1.05,-0.49,
5.524,12.85,3.66,14.02,1.71,1.05,-0.49,
5.524,13.06,3.34,13.88,1.71,1.05,-0.49,
5.524,13.06,3.34,13.88,1.85,1.08,-0.56,
5.525,13.18,2.93,13.58,1.85,1.08,-0.56,
5.525,13.18,2.93,13.58,1.98,1.13,-0.63,
5.525,13.18,2.93,13.58,2.10,1.18,-0.70,
5.526,13.30,2.55,13.32,2.10,1.18,-0.70,
5.526,13.47,2.12,13.10,2.10,1.18,-0.70,
5.526,13.47,2.12,13.10,2.22,1.25,-0.78,
5.527,13.64,1.63,12.96,2.22,1.25,-0.78,
5.527,13.64,1.63,12.96,2.34,1.32,-0.85,
5.531,13.80,1.06,12.71,2.34,1.32,-0.85,
5.531,13.80,1.06,12.71,2.47,1.39,-0.92,
5.535,14.03,0.52,12.49,2.47,1.39,-0.92,
5.535,14.03,0.52,12.49,2.59,1.45,-1.00,
5.541,14.28,0.06,12.20,2.59,1.45,-1.00,
5.541,14.28,0.06,12.20,2.72,1.50,-1.07,
5.545,14.53,-0.42,11.91,2.72,1.50,-1.07,
5.546,14.53,-0.42,11.91,2.84,1.55,-1.15,
5.552,14.53,-0.42,11.91,2.97,1.60,-1.24,
5.553,14.80,-0.97,11.66,2.97,1.60,-1.24,
5.554,15.05,-1.57,11.42,2.97,1.60,-1.24,
5.555,15.05,-1.57,11.42,3.10,1.65,-1.33,
5.561,15.05,-1.57,11.42,3.23,1.68,-1.43,
5.561,15.34,-2.19,11.22,3.23,1.68,-1.43,
5.576,15.34,-2.19,11.22,3.37,1.72,-1.53,
5.576,15.54,-2.77,11.06,3.37,1.72,-1.53,
5.577,15.54,-2.77,11.06,3.51,1.75,-1.64,
5.577,15.67,-3.34,10.86,3.51,1.75,-1.64,
5.578,15.67,-3.34,10.86,3.66,1.77,-1.76,
5.578,15.72,-3.82,10.59,3.66,1.77,-1.76,
5.579,15.76,-4.34,10.31,3.66,1.77,-1.76,
5.579,15.76,-4.34,10.31,3.82,1.78,-1.88,
5.584,15.84,-4.91,9.99,3.82,1.78,-1.88,
5.585,15.84,-4.91,9.99,3.97,1.78,-2.01,
5.589,15.81,-5.56,9.56,3.97,1.78,-2.01,
5.589,15.81,-5.56,9.56,4.12,1.78,-2.14,
5.593,15.81,-5.56,9.56,4.26,1.78,-2.27,
5.594,15.68,-6.23,9.10,4.26,1.78,-2.27,
5.598,15.68,-6.23,9.10,4.39,1.80,-2.40,
5.599,15.46,-6.95,8.76,4.39,1.80,-2.40,
5.603,15.46,-6.95,8.76,4.51,1.83,-2.51,
5.604,15.17,-7.69,8.38,4.51,1.83,-2.51,
5.608,15.17,-7.69,8.38,4.62,1.86,-2.62,
5.608,14.88,-8.31,7.95,4.62,1.86,-2.62,
5.613,14.60,-9.02,7.47,4.62,1.86,-2.62,
5.614,14.60,-9.02,7.47,4.71,1.89,-2.71,
5.618,14.35,-9.67,7.02,4.71,1.89,-2.71,
5.618,14.35,-9.67,7.02,4.80,1.92,-2.79,
5.623,14.16,-10.34,6.66,4.80,1.92,-2.79,
5.624,14.16,-10.34,6.66,4.87,1.95,-2.86,
5.628,13.99,-11.04,6.28,4.87,1.95,-2.86,
5.628,13.99,-11.04,6.28,4.94,1.97,-2.93,
5.633,13.87,-11.79,5.99,4.94,1.97,-2.93,
5.634,13.87,-11.79,5.99,5.00,1.98,-2.99,
5.638,13.87,-11.79,5.99,5.06,1.98,-3.04,
5.639,13.80,-12.49,5.73,5.06,1.98,-3.04,
5.643,13.80,-12.49,5.73,5.11,1.97,-3.09,
5.643,13.71,-13.23,5.47,5.11,1.97,-3.09,
5.647,13.62,-13.91,5.31,5.11,1.97,-3.09,
5.648,13.62,-13.91,5.31,5.16,1.95,-3.14,
5.652,13.56,-14.55,5.24,5.16,1.95,-3.14,
5.653,13.56,-14.55,5.24,5.23,1.92,-3.18,
5.657,13.56,-14.55,5.24,5.29,1.88,-3.23,
5.658,13.39,-15.10,5.19,5.29,1.88,-3.23,
5.662,13.23,-15.55,5.15,5.29,1.88,-3.23,
5.663,13.23,-15.55,5.15,5.36,1.83,-3.27,
5.668,13.23,-15.55,5.15,5.44,1.77,-3.31,
5.669,13.02,-15.95,5.04,5.44,1.77,-3.31,
5.671,13.02,-15.95,5.04,5.52,1.70,-3.36,
5.672,12.84,-16.37,4.94,5.52,1.70,-3.36,
5.677,12.84,-16.37,4.94,5.59,1.62,-3.40,
5.677,12.64,-16.70,4.70,5.59,1.62,-3.40,
5.69,12.41,-17.12,4.38,5.59,1.62,-3.40,
5.691,12.41,-17.12,4.38,5.64,1.54,-3.44,
5.692,12.14,-17.44,4.06,5.64,1.54,-3.44,
5.693,12.14,-17.44,4.06,5.68,1.47,-3.47,
5.694,11.88,-17.80,3.75,5.68,1.47,-3.47,
5.694,11.88,-17.80,3.75,5.69,1.42,-3.49,
5.698,11.88,-17.80,3.75,5.67,1.37,-3.50,
5.698,11.70,-17.95,3.49,5.67,1.37,-3.50,
5.722,11.54,-18.05,3.23,5.67,1.37,-3.50,
5.723,11.54,-18.05,3.23,5.64,1.34,-3.51,
5.723,11.54,-18.05,3.23,5.58,1.33,-3.51,
5.724,11.41,-18.15,2.97,5.58,1.33,-3.51,
5.724,11.32,-18.22,2.76,5.58,1.33,-3.51,
5.725,11.32,-18.22,2.76,5.49,1.33,-3.50,
5.726,11.32,-18.22,2.76,5.39,1.36,-3.49,
5.726,11.25,-18.25,2.63,5.39,1.36,-3.49,
5.727,11.25,-18.25,2.63,5.27,1.39,-3.49,
5.728,11.20,-18.26,2.55,5.27,1.39,-3.49,
5.728,11.20,-18.26,2.55,5.14,1.44,-3.47,
5.764,11.19,-18.32,2.55,5.14,1.44,-3.47,
5.764,11.19,-18.32,2.55,5.00,1.49,-3.45,
5.765,11.15,-18.33,2.62,5.00,1.49,-3.45,
5.765,11.15,-18.33,2.62,4.86,1.54,-3.43,
5.766,11.15,-18.39,2.73,4.86,1.54,-3.43,
5.766,11.15,-18.39,2.73,4.73,1.60,-3.40,
5.767,11.23,-18.45,2.91,4.73,1.60,-3.40,
5.767,11.33,-18.55,3.11,4.73,1.60,-3.40,
5.768,11.33,-18.55,3.11,4.60,1.66,-3.38,
5.768,11.40,-18.59,3.35,4.60,1.66,-3.38,
5.769,11.40,-18.59,3.35,4.48,1.71,-3.35,
5.77,11.47,-18.63,3.76,4.48,1.71,-3.35,
5.77,11.47,-18.63,3.76,4.37,1.76,-3.34,
5.771,11.62,-18.74,4.26,4.37,1.76,-3.34,
5.771,11.62,-18.74,4.26,4.28,1.79,-3.32,
5.772,11.84,-18.93,4.76,4.28,1.79,-3.32,
5.772,11.84,-18.93,4.76,4.21,1.82,-3.31,
5.773,12.03,-19.19,5.11,4.21,1.82,-3.31,
5.773,12.03,-19.19,5.11,4.16,1.84,-3.30,
5.774,12.03,-19.19,5.11,4.14,1.86,-3.31,
5.774,12.23,-19.49,5.49,4.14,1.86,-3.31,
5.811,12.41,-19.82,5.85,4.14,1.86,-3.31,
5.812,12.41,-19.82,5.85,4.13,1.88,-3.31,
5.812,12.41,-19.82,5.85,4.14,1.91,-3.32,
5.812,12.52,-20.14,5.99,4.14,1.91,-3.32,
5.813,12.55,-20.39,6.09,4.14,1.91,-3.32,
5.813,12.55,-20.39,6.09,4.15,1.96,-3.33,
5.814,12.55,-20.39,6.09,4.16,2.01,-3.34,
5.814,12.61,-20.57,6.09,4.16,2.01,-3.34,
5.815,12.61,-20.57,6.09,4.16,2.06,-3.34,
5.815,12.61,-20.78,6.11,4.16,2.06,-3.34,
5.815,12.61,-20.78,6.11,4.17,2.12,-3.34,
5.816,12.58,-21.02,6.09,4.17,2.12,-3.34,
5.816,12.58,-21.02,6.09,4.16,2.19,-3.33,
5.817,12.59,-21.25,5.98,4.16,2.19,-3.33,
5.817,12.62,-21.54,5.79,4.16,2.19,-3.33,
5.818,12.62,-21.54,5.79,4.14,2.26,-3.31,
5.818,12.65,-21.81,5.47,4.14,2.26,-3.31,
5.819,12.65,-21.81,5.47,4.11,2.35,-3.29,
5.822,12.65,-21.81,5.47,4.06,2.44,-3.25,
5.823,12.76,-22.06,5.22,4.06,2.44,-3.25,
5.828,12.94,-22.25,4.96,4.06,2.44,-3.25,
5.829,12.94,-22.25,4.96,3.98,2.57,-3.21,
5.843,12.94,-22.25,4.96,3.89,2.71,-3.16,
5.844,13.22,-22.44,4.69,3.89,2.71,-3.16,
5.844,13.50,-22.67,4.43,3.89,2.71,-3.16,
5.845,13.50,-22.67,4.43,3.78,2.87,-3.12,
5.845,13.83,-22.96,4.27,3.78,2.87,-3.12,
5.846,13.83,-22.96,4.27,3.65,3.04,-3.07,
5.847,13.83,-22.96,4.27,3.51,3.21,-3.01,
5.848,14.17,-23.29,4.23,3.51,3.21,-3.01,
5.872,14.17,-23.29,4.23,3.38,3.40,-2.94,
5.873,14.57,-23.60,4.13,3.38,3.40,-2.94,
5.873,14.95,-23.84,4.04,3.38,3.40,-2.94,
5.874,14.95,-23.84,4.04,3.25,3.61,-2.86,
5.874,14.95,-23.84,4.04,3.13,3.82,-2.79,
5.875,15.38,-23.94,3.80,3.13,3.82,-2.79,
5.875,15.38,-23.94,3.80,3.00,4.03,-2.71,
5.875,15.91,-23.93,3.60,3.00,4.03,-2.71,
5.876,16.40,-23.86,3.42,3.00,4.03,-2.71,
5.876,16.40,-23.86,3.42,2.89,4.23,-2.65,
5.877,16.86,-23.67,3.23,2.89,4.23,-2.65,
5.877,16.86,-23.67,3.23,2.79,4.42,-2.61,
5.881,17.49,-23.37,2.86,2.79,4.42,-2.61,
5.882,17.49,-23.37,2.86,2.70,4.60,-2.57,
5.886,17.49,-23.37,2.86,2.62,4.78,-2.56,
5.887,18.47,-23.09,2.41,2.62,4.78,-2.56,
5.891,19.59,-22.86,1.91,2.62,4.78,-2.56,
5.891,19.59,-22.86,1.91,2.54,4.96,-2.57,
5.896,20.77,-22.72,1.41,2.54,4.96,-2.57,
5.896,20.77,-22.72,1.41,2.47,5.14,-2.64,
5.903,21.83,-22.64,0.82,2.47,5.14,-2.64,
5.904,21.83,-22.64,0.82,2.42,5.31,-2.75,
5.905,22.94,-22.67,-0.01,2.42,5.31,-2.75,
5.906,22.94,-22.67,-0.01,2.38,5.46,-2.92,
5.91,22.94,-22.67,-0.01,2.34,5.58,-3.12,
5.911,23.95,-22.77,-1.07,2.34,5.58,-3.12,
5.923,23.95,-22.77,-1.07,2.28,5.66,-3.37,
5.924,24.88,-22.94,-2.24,2.28,5.66,-3.37,
5.925,24.88,-22.94,-2.24,2.21,5.70,-3.63,
5.925,25.59,-23.18,-3.27,2.21,5.70,-3.63,
5.926,25.74,-23.51,-4.20,2.21,5.70,-3.63,
5.926,25.74,-23.51,-4.20,2.13,5.70,-3.91,
5.931,25.02,-23.98,-4.81,2.13,5.70,-3.91,
5.932,25.02,-23.98,-4.81,2.04,5.71,-4.18,
5.935,23.60,-24.40,-5.21,2.04,5.71,-4.18,
5.935,23.60,-24.40,-5.21,1.94,5.72,-4.39,
5.939,22.01,-24.65,-5.35,1.94,5.72,-4.39,
5.94,22.01,-24.65,-5.35,1.85,5.74,-4.54,
5.944,22.01,-24.65,-5.35,1.75,5.79,-4.58,
5.945,20.78,-24.67,-5.55,1.75,5.79,-4.58,
5.95,20.78,-24.67,-5.55,1.66,5.86,-4.53,
5.951,19.87,-24.55,-5.63,1.66,5.86,-4.53,
5.954,19.15,-24.40,-5.68,1.66,5.86,-4.53,
5.955,19.15,-24.40,-5.68,1.57,5.95,-4.44,
5.959,19.15,-24.40,-5.68,1.50,6.04,-4.31,
5.96,18.52,-24.27,-5.63,1.50,6.04,-4.31,
5.964,18.52,-24.27,-5.63,1.43,6.12,-4.17,
5.966,18.04,-24.14,-5.64,1.43,6.12,-4.17,
5.969,18.04,-24.14,-5.64,1.38,6.19,-4.00,
6.007,17.81,-23.92,-5.59,1.38,6.19,-4.00,
6.008,17.69,-23.82,-5.47,1.38,6.19,-4.00,
6.008,17.69,-23.82,-5.47,1.35,6.25,-3.81,
6.009,17.57,-23.65,-5.42,1.35,6.25,-3.81,
6.009,17.57,-23.65,-5.42,1.35,6.30,-3.61,
6.01,17.57,-23.65,-5.42,1.37,6.33,-3.41,
6.01,17.62,-23.49,-5.30,1.37,6.33,-3.41,
6.011,17.62,-23.49,-5.30,1.42,6.32,-3.21,
6.011,17.96,-23.23,-5.20,1.42,6.32,-3.21,
6.012,17.96,-23.23,-5.20,1.50,6.27,-3.00,
6.012,18.34,-22.94,-5.19,1.50,6.27,-3.00,
6.012,18.34,-22.94,-5.19,1.60,6.21,-2.81,
6.013,18.70,-22.57,-5.28,1.60,6.21,-2.81,
6.014,18.70,-22.57,-5.28,1.71,6.12,-2.64,
6.014,19.11,-22.18,-5.49,1.71,6.12,-2.64,
6.014,19.11,-22.18,-5.49,1.83,6.02,-2.49,
6.015,19.51,-21.79,-5.75,1.83,6.02,-2.49,
6.015,19.51,-21.79,-5.75,1.94,5.92,-2.36,
6.016,19.70,-21.44,-6.04,1.94,5.92,-2.36,
6.02,19.70,-21.44,-6.04,2.05,5.81,-2.23,
6.021,19.64,-21.11,-6.29,2.05,5.81,-2.23,
6.023,19.57,-20.75,-6.44,2.05,5.81,-2.23,
6.023,19.57,-20.75,-6.44,2.15,5.70,-2.10,
6.028,19.57,-20.75,-6.44,2.24,5.58,-1.95,
6.028,19.34,-20.28,-6.58,2.24,5.58,-1.95,
6.037,19.05,-19.73,-6.86,2.24,5.58,-1.95,
6.038,19.05,-19.73,-6.86,2.32,5.44,-1.78,
6.038,19.05,-19.73,-6.86,2.37,5.29,-1.60,
6.039,18.79,-19.30,-7.11,2.37,5.29,-1.60,
6.042,18.60,-18.83,-7.37,2.37,5.29,-1.60,
6.043,18.60,-18.83,-7.37,2.40,5.16,-1.41,
6.06,18.60,-18.83,-7.37,2.39,5.05,-1.20,
6.061,18.42,-18.38,-7.67,2.39,5.05,-1.20,
6.062,18.31,-17.91,-7.71,2.39,5.05,-1.20,
6.062,18.31,-17.91,-7.71,2.35,4.95,-0.99,
6.062,18.41,-17.39,-7.74,2.35,4.95,-0.99,
6.063,18.41,-17.39,-7.74,2.27,4.88,-0.78,
6.063,18.76,-16.87,-7.56,2.27,4.88,-0.78,
6.064,18.76,-16.87,-7.56,2.18,4.85,-0.56,
6.067,19.22,-16.40,-7.44,2.18,4.85,-0.56,
6.068,19.22,-16.40,-7.44,2.07,4.85,-0.35,
6.071,19.74,-15.99,-7.41,2.07,4.85,-0.35,
6.072,19.74,-15.99,-7.41,1.96,4.89,-0.15,
6.076,19.74,-15.99,-7.41,1.82,4.97,0.03,
6.076,20.29,-15.58,-7.32,1.82,4.97,0.03,
6.081,20.92,-15.16,-7.12,1.82,4.97,0.03,
6.082,20.92,-15.16,-7.12,1.68,5.07,0.19,
6.086,21.54,-14.79,-6.85,1.68,5.07,0.19,
6.087,21.54,-14.79,-6.85,1.54,5.17,0.32,
6.091,21.92,-14.43,-6.35,1.54,5.17,0.32,
6.091,21.92,-14.43,-6.35,1.41,5.25,0.46,
6.095,22.39,-14.04,-5.63,1.41,5.25,0.46,
6.096,22.39,-14.04,-5.63,1.32,5.32,0.59,
6.101,22.91,-13.55,-4.78,1.32,5.32,0.59,
6.102,22.91,-13.55,-4.78,1.27,5.36,0.73,
6.106,22.91,-13.55,-4.78,1.28,5.36,0.84,
6.106,23.36,-13.09,-3.97,1.28,5.36,0.84,
6.11,23.36,-13.09,-3.97,1.33,5.32,0.94,
6.111,23.65,-12.75,-3.25,1.33,5.32,0.94,
6.12,23.65,-12.75,-3.25,1.44,5.25,1.03,
6.121,23.87,-12.54,-2.69,1.44,5.25,1.03,
6.122,24.21,-12.40,-2.20,1.44,5.25,1.03,
6.122,24.21,-12.40,-2.20,1.57,5.18,1.12,
6.128,24.21,-12.40,-2.20,1.72,5.13,1.21,
6.128,24.66,-12.31,-1.75,1.72,5.13,1.21,
6.148,25.08,-12.22,-1.37,1.72,5.13,1.21,
6.149,25.08,-12.22,-1.37,1.90,5.08,1.28,
6.15,25.47,-12.15,-1.17,1.90,5.08,1.28,
6.15,25.47,-12.15,-1.17,2.08,5.05,1.34,
6.151,25.47,-12.15,-1.17,2.27,5.04,1.37,
6.151,25.82,-12.12,-1.02,2.27,5.04,1.37,
6.151,26.14,-12.16,-1.03,2.27,5.04,1.37,
6.152,26.14,-12.16,-1.03,2.44,5.05,1.39,
6.152,26.35,-12.28,-1.10,2.44,5.05,1.39,
6.153,26.35,-12.28,-1.10,2.60,5.07,1.39,
6.155,26.46,-12.51,-1.16,2.60,5.07,1.39,
6.156,26.46,-12.51,-1.16,2.74,5.11,1.39,
6.159,26.55,-12.81,-1.07,2.74,5.11,1.39,
6.159,26.55,-12.81,-1.07,2.86,5.16,1.38,
6.164,26.63,-13.13,-0.99,2.86,5.16,1.38,
6.165,26.63,-13.13,-0.99,2.97,5.22,1.38,
6.169,26.85,-13.46,-0.85,2.97,5.22,1.38,
6.17,26.85,-13.46,-0.85,3.07,5.27,1.38,
6.174,27.32,-13.82,-0.82,3.07,5.27,1.38,
6.175,27.32,-13.82,-0.82,3.16,5.33,1.39,
6.179,28.04,-14.09,-0.75,3.16,5.33,1.39,
6.18,28.04,-14.09,-0.75,3.26,5.38,1.39,
6.184,28.04,-14.09,-0.75,3.36,5.43,1.39,
6.185,28.70,-14.27,-0.92,3.36,5.43,1.39,
6.189,28.70,-14.27,-0.92,3.45,5.47,1.38,
6.19,29.40,-14.47,-1.07,3.45,5.47,1.38,
6.194,29.40,-14.47,-1.07,3.54,5.51,1.36,
6.194,29.94,-14.62,-1.14,3.54,5.51,1.36,
6.208,29.94,-14.62,-1.14,3.63,5.54,1.33,
6.209,30.29,-14.86,-1.10,3.63,5.54,1.33,
6.21,30.29,-14.86,-1.10,3.72,5.57,1.29,
6.211,30.55,-15.08,-1.08,3.72,5.57,1.29,
6.212,30.60,-15.33,-1.25,3.72,5.57,1.29,
6.213,30.60,-15.33,-1.25,3.81,5.59,1.26,
6.214,30.60,-15.33,-1.25,3.89,5.60,1.22,
6.263,30.54,-15.50,-1.47,3.89,5.60,1.22,
6.264,30.45,-15.66,-1.85,3.89,5.60,1.22,
6.264,30.45,-15.66,-1.85,3.94,5.62,1.20,
6.265,30.34,-15.84,-2.18,3.94,5.62,1.20,
6.266,30.34,-15.84,-2.18,3.97,5.65,1.18,
6.266,30.33,-16.02,-2.44,3.97,5.65,1.18,
6.267,30.33,-16.02,-2.44,3.97,5.68,1.17,
6.268,30.33,-16.02,-2.44,3.93,5.72,1.16,
6.268,30.54,-16.17,-2.44,3.93,5.72,1.16,
6.269,30.54,-16.17,-2.44,3.88,5.78,1.14,
6.269,30.71,-16.32,-2.21,3.88,5.78,1.14,
6.27,30.77,-16.54,-1.86,3.88,5.78,1.14,
6.271,30.77,-16.54,-1.86,3.83,5.83,1.12,
6.271,30.77,-16.54,-1.86,3.80,5.88,1.10,
6.272,30.73,-16.87,-1.45,3.80,5.88,1.10,
6.272,30.73,-16.87,-1.45,3.77,5.93,1.08,
6.273,30.61,-17.35,-1.03,3.77,5.93,1.08,
6.273,30.50,-17.91,-0.71,3.77,5.93,1.08,
6.274,30.50,-17.91,-0.71,3.77,5.96,1.10,
6.274,30.50,-17.91,-0.71,3.76,5.98,1.13,
6.275,30.51,-18.47,-0.45,3.76,5.98,1.13,
6.275,30.75,-18.92,-0.26,3.76,5.98,1.13,
6.276,30.75,-18.92,-0.26,3.76,6.00,1.20,
6.277,31.26,-19.36,-0.12,3.76,6.00,1.20,
6.277,31.26,-19.36,-0.12,3.75,6.02,1.29,
6.277,31.26,-19.36,-0.12,3.73,6.05,1.38,
6.278,31.79,-19.76,-0.19,3.73,6.05,1.38,
6.318,31.79,-19.76,-0.19,3.68,6.09,1.46,
6.319,32.39,-20.04,-0.38,3.68,6.09,1.46,
6.319,32.93,-20.30,-0.59,3.68,6.09,1.46,
6.319,32.93,-20.30,-0.59,3.61,6.15,1.54,
6.32,32.93,-20.30,-0.59,3.50,6.20,1.62,
6.32,33.52,-20.46,-0.51,3.50,6.20,1.62,
6.321,33.52,-20.46,-0.51,3.38,6.26,1.68,
6.321,34.23,-20.51,-0.27,3.38,6.26,1.68,
6.321,34.23,-20.51,-0.27,3.24,6.32,1.74,
6.322,34.87,-20.62,0.13,3.24,6.32,1.74,
6.322,34.87,-20.62,0.13,3.10,6.40,1.81,
6.322,35.31,-20.78,0.43,3.10,6.40,1.81,
6.323,35.31,-20.78,0.43,2.96,6.50,1.88,
6.323,35.33,-20.90,1.00,2.96,6.50,1.88,
6.324,35.30,-21.05,2.01,2.96,6.50,1.88,
6.324,35.30,-21.05,2.01,2.84,6.61,1.97,
6.324,35.30,-21.05,2.01,2.77,6.73,2.08,
6.325,35.27,-21.28,3.16,2.77,6.73,2.08,
6.325,35.24,-21.64,4.37,2.77,6.73,2.08,
6.326,35.24,-21.64,4.37,2.75,6.87,2.20,
6.33,35.24,-21.64,4.37,2.80,6.99,2.32,
6.331,35.21,-21.97,5.58,2.80,6.99,2.32,
6.339,35.21,-21.97,5.58,2.93,7.10,2.42,
6.34,35.17,-22.30,6.71,2.93,7.10,2.42,
6.341,35.17,-22.30,6.71,3.14,7.17,2.51,
6.341,35.14,-22.77,7.59,3.14,7.17,2.51,
6.345,35.10,-23.32,8.30,3.14,7.17,2.51,
6.345,35.10,-23.32,8.30,3.41,7.23,2.61,
6.365,35.10,-23.32,8.30,3.72,7.27,2.70,
6.366,35.06,-23.80,9.05,3.72,7.27,2.70,
6.366,35.02,-24.30,9.65,3.72,7.27,2.70,
6.367,35.02,-24.30,9.65,4.08,7.30,2.77,
6.367,35.02,-24.30,9.65,4.48,7.32,2.83,
6.368,34.98,-24.88,10.28,4.48,7.32,2.83,
6.368,34.98,-24.88,10.28,4.93,7.35,2.86,
6.369,34.94,-25.54,10.85,4.93,7.35,2.86,
6.369,34.89,-26.16,11.32,4.93,7.35,2.86,
6.37,34.89,-26.16,11.32,5.43,7.39,2.87,
6.374,34.89,-26.16,11.32,5.97,7.45,2.85,
6.374,34.85,-26.75,11.51,5.97,7.45,2.85,
6.378,34.85,-26.75,11.51,6.54,7.52,2.78,
6.379,34.81,-27.24,11.29,6.54,7.52,2.78,
6.384,34.77,-27.30,10.77,6.54,7.52,2.78,
6.385,34.77,-27.30,10.77,7.12,7.61,2.65,
6.388,34.74,-27.17,9.68,7.12,7.61,2.65,
6.389,34.74,-27.17,9.68,7.71,7.76,2.47,
6.393,34.71,-27.45,8.07,7.71,7.76,2.47,
6.394,34.71,-27.45,8.07,8.27,8.00,2.26,
6.399,34.69,-28.04,6.01,8.27,8.00,2.26,
6.4,34.69,-28.04,6.01,8.79,8.28,2.04,
6.404,34.69,-28.04,6.01,9.23,8.54,1.80,
6.404,34.68,-28.66,4.03,9.23,8.54,1.80,
6.407,34.68,-28.66,4.03,9.60,8.73,1.52,
6.407,34.67,-29.26,2.11,9.60,8.73,1.52,
6.412,34.67,-29.82,-0.03,9.60,8.73,1.52,
6.412,34.67,-29.82,-0.03,9.91,8.84,1.20,
6.417,34.67,-29.82,-0.03,10.13,8.84,0.84,
6.418,34.67,-30.30,-2.44,10.13,8.84,0.84,
6.422,34.67,-30.30,-2.44,10.24,8.74,0.48,
6.422,34.67,-30.66,-4.49,10.24,8.74,0.48,
6.426,34.69,-30.75,-6.26,10.24,8.74,0.48,
6.427,34.69,-30.75,-6.26,10.26,8.57,0.12,
6.44,34.70,-30.68,-7.95,10.26,8.57,0.12,
6.441,34.70,-30.68,-7.95,10.17,8.36,-0.23,
6.441,34.70,-30.68,-7.95,9.98,8.19,-0.56,
6.442,34.72,-30.45,-8.92,9.98,8.19,-0.56,
6.443,34.73,-30.13,-9.47,9.98,8.19,-0.56,
6.443,34.73,-30.13,-9.47,9.71,8.08,-0.83,
6.446,34.75,-30.04,-9.43,9.71,8.08,-0.83,
6.446,34.75,-30.04,-9.43,9.38,8.07,-1.04,
6.47,34.77,-30.07,-8.92,9.38,8.07,-1.04,
6.471,34.77,-30.07,-8.92,9.03,8.14,-1.18,
6.472,34.77,-30.07,-8.92,8.69,8.25,-1.27,
6.575,34.78,-30.15,-8.45,8.69,8.25,-1.27,
6.576,34.79,-30.12,-7.66,8.69,8.25,-1.27,
6.577,34.79,-30.12,-7.66,8.36,8.38,-1.31,
6.577,34.79,-30.07,-6.71,8.36,8.38,-1.31,
6.578,34.79,-30.07,-6.71,8.07,8.53,-1.31,
6.578,34.79,-29.89,-5.56,8.07,8.53,-1.31,
6.579,34.79,-29.89,-5.56,7.84,8.67,-1.31,
6.579,34.79,-29.89,-5.56,7.68,8.76,-1.32,
6.58,34.78,-29.83,-4.34,7.68,8.76,-1.32,
6.581,34.78,-29.83,-4.34,7.59,8.81,-1.32,
6.581,34.76,-29.79,-3.08,7.59,8.81,-1.32,
6.583,34.75,-29.74,-2.27,7.59,8.81,-1.32,
6.584,34.75,-29.74,-2.27,7.58,8.81,-1.33,
6.585,34.72,-29.68,-1.67,7.58,8.81,-1.33,
6.586,34.72,-29.68,-1.67,7.64,8.73,-1.35,
6.586,34.70,-29.71,-1.12,7.64,8.73,-1.35,
6.587,34.70,-29.71,-1.12,7.76,8.59,-1.42,
6.588,34.70,-29.71,-1.12,7.92,8.35,-1.52,
6.589,34.68,-29.79,-0.99,7.92,8.35,-1.52,
6.589,34.68,-29.79,-0.99,8.12,8.07,-1.65,
6.59,34.65,-29.87,-0.90,8.12,8.07,-1.65,
6.591,34.65,-29.87,-0.90,8.32,7.76,-1.82,
6.591,34.63,-29.99,-0.94,8.32,7.76,-1.82,
6.592,34.63,-29.99,-0.94,8.53,7.45,-2.01,
6.593,34.62,-30.05,-1.50,8.53,7.45,-2.01,
6.594,34.60,-30.23,-2.16,8.53,7.45,-2.01,
6.594,34.60,-30.23,-2.16,8.71,7.15,-2.22,
6.595,34.60,-30.30,-2.83,8.71,7.15,-2.22,
6.596,34.60,-30.30,-2.83,8.85,6.87,-2.43,
6.596,34.60,-30.30,-2.83,8.93,6.59,-2.64,
6.597,34.59,-30.33,-3.59,8.93,6.59,-2.64,
6.598,34.59,-30.33,-3.59,8.96,6.35,-2.84,
6.599,34.59,-30.26,-4.33,8.96,6.35,-2.84,
6.599,34.59,-30.06,-5.26,8.96,6.35,-2.84,
6.6,34.59,-30.06,-5.26,8.92,6.16,-3.04,
6.601,34.59,-29.78,-6.05,8.92,6.16,-3.04,
6.601,34.59,-29.78,-6.05,8.81,6.02,-3.22,
6.602,34.59,-29.49,-6.53,8.81,6.02,-3.22,
6.602,34.59,-29.49,-6.53,8.65,5.90,-3.40,
6.603,34.59,-29.11,-6.76,8.65,5.90,-3.40,
6.603,34.59,-29.11,-6.76,8.43,5.83,-3.56,
6.604,34.59,-28.64,-7.00,8.43,5.83,-3.56,
6.604,34.59,-28.64,-7.00,8.19,5.76,-3.70,
6.605,34.60,-28.24,-7.24,8.19,5.76,-3.70,
6.606,34.60,-28.24,-7.24,7.93,5.70,-3.82,
6.606,34.60,-27.86,-7.51,7.93,5.70,-3.82,
6.607,34.60,-27.86,-7.51,7.65,5.65,-3.91,
6.607,34.59,-27.59,-7.59,7.65,5.65,-3.91,
6.608,34.59,-27.59,-7.59,7.35,5.62,-3.97,
6.608,33.21,-27.21,-7.40,7.35,5.62,-3.97,
6.609,33.21,-27.21,-7.40,7.05,5.58,-4.01,
6.609,33.21,-27.21,-7.40,6.75,5.56,-4.03,
6.61,31.40,-26.50,-7.12,6.75,5.56,-4.03,
6.61,29.72,-25.66,-6.96,6.75,5.56,-4.03,
6.611,29.72,-25.66,-6.96,6.47,5.53,-4.02,
6.612,28.19,-24.94,-6.83,6.47,5.53,-4.02,
6.612,28.19,-24.94,-6.83,6.21,5.48,-3.99,
6.613,28.19,-24.94,-6.83,5.95,5.42,-3.93,
6.613,26.74,-24.32,-6.73,5.95,5.42,-3.93,
6.614,25.42,-23.70,-6.57,5.95,5.42,-3.93,
6.615,25.42,-23.70,-6.57,5.70,5.35,-3.85,
6.615,24.23,-23.02,-6.43,5.70,5.35,-3.85,
6.616,24.23,-23.02,-6.43,5.46,5.28,-3.75,
6.616,24.23,-23.02,-6.43,5.22,5.22,-3.64,
6.617,23.22,-22.13,-6.44,5.22,5.22,-3.64,
6.618,22.40,-21.27,-6.66,5.22,5.22,-3.64,
6.618,22.40,-21.27,-6.66,4.98,5.16,-3.52,
6.638,22.40,-21.27,-6.66,4.72,5.11,-3.40,
6.639,21.68,-20.46,-6.97,4.72,5.11,-3.40,
6.639,21.68,-20.46,-6.97,4.44,5.06,-3.29,
6.64,21.07,-19.74,-7.24,4.44,5.06,-3.29,
6.641,20.57,-18.91,-7.36,4.44,5.06,-3.29,
6.641,20.57,-18.91,-7.36,4.15,5.00,-3.18,
6.642,20.57,-18.91,-7.36,3.84,4.93,-3.09,
6.642,20.13,-18.18,-7.30,3.84,4.93,-3.09,
6.643,19.68,-17.49,-7.06,3.84,4.93,-3.09,
6.643,19.68,-17.49,-7.06,3.54,4.86,-2.99,
6.646,19.27,-16.82,-6.79,3.54,4.86,-2.99,
6.647,19.27,-16.82,-6.79,3.26,4.80,-2.91,
6.652,19.27,-16.82,-6.79,2.99,4.74,-2.82,
6.653,18.74,-16.21,-6.62,2.99,4.74,-2.82,
6.656,18.74,-16.21,-6.62,2.74,4.69,-2.73,
6.656,18.29,-15.57,-6.51,2.74,4.69,-2.73,
6.66,18.29,-15.57,-6.51,2.49,4.63,-2.63,
6.661,18.08,-14.94,-6.34,2.49,4.63,-2.63,
6.671,18.04,-14.26,-6.19,2.49,4.63,-2.63,
6.672,18.04,-14.26,-6.19,2.26,4.57,-2.52,
6.672,18.04,-14.26,-6.19,2.05,4.52,-2.43,
6.673,18.24,-13.56,-6.19,2.05,4.52,-2.43,
6.675,18.45,-12.98,-6.40,2.05,4.52,-2.43,
6.676,18.45,-12.98,-6.40,1.85,4.47,-2.34,
6.68,18.45,-12.98,-6.40,1.66,4.44,-2.27,
6.681,18.82,-12.36,-6.73,1.66,4.44,-2.27,
6.693,19.41,-11.77,-7.01,1.66,4.44,-2.27,
6.694,19.41,-11.77,-7.01,1.46,4.41,-2.21,
6.695,20.19,-11.20,-7.36,1.46,4.41,-2.21,
6.695,20.19,-11.20,-7.36,1.26,4.39,-2.18,
6.695,20.19,-11.20,-7.36,1.06,4.36,-2.19,
6.696,20.91,-10.74,-7.64,1.06,4.36,-2.19,
6.7,20.91,-10.74,-7.64,0.87,4.32,-2.23,
6.73,21.48,-10.31,-7.93,0.87,4.32,-2.23,
6.731,21.78,-10.12,-8.11,0.87,4.32,-2.23,
6.731,21.78,-10.12,-8.11,0.69,4.27,-2.30,
6.732,21.73,-10.06,-8.26,0.69,4.27,-2.30,
6.732,21.73,-10.06,-8.26,0.52,4.20,-2.39,
6.733,21.45,-10.16,-8.53,0.52,4.20,-2.39,
6.734,21.45,-10.16,-8.53,0.36,4.13,-2.47,
6.735,21.45,-10.16,-8.53,0.19,4.05,-2.54,
6.735,21.10,-10.29,-8.81,0.19,4.05,-2.54,
6.736,21.10,-10.29,-8.81,0.02,3.96,-2.59,
6.736,20.68,-10.50,-9.00,0.02,3.96,-2.59,
6.736,20.68,-10.50,-9.00,-0.16,3.90,-2.62,
6.737,20.14,-10.94,-8.92,-0.16,3.90,-2.62,
6.738,20.14,-10.94,-8.92,-0.32,3.86,-2.63,
6.738,19.39,-11.52,-8.61,-0.32,3.86,-2.63,
6.774,19.39,-11.52,-8.61,-0.47,3.88,-2.60,
6.774,18.69,-12.13,-8.12,-0.47,3.88,-2.60,
6.775,18.69,-12.13,-8.12,-0.58,3.91,-2.53,
6.775,17.95,-12.66,-7.43,-0.58,3.91,-2.53,
6.776,17.95,-12.66,-7.43,-0.64,3.96,-2.44,
6.776,17.19,-13.09,-6.60,-0.64,3.96,-2.44,
6.777,17.19,-13.09,-6.60,-0.63,3.99,-2.31,
6.777,16.48,-13.33,-5.75,-0.63,3.99,-2.31,
6.778,16.48,-13.33,-5.75,-0.55,4.02,-2.17,
6.778,16.07,-13.48,-5.12,-0.55,4.02,-2.17,
6.779,16.07,-13.48,-5.12,-0.39,4.03,-2.02,
6.779,15.95,-13.46,-4.89,-0.39,4.03,-2.02,
6.78,15.95,-13.46,-4.89,-0.18,4.02,-1.88,
6.78,16.16,-13.26,-4.84,-0.18,4.02,-1.88,
6.781,16.16,-13.26,-4.84,0.09,3.99,-1.78,
6.781,16.72,-12.91,-4.94,0.09,3.99,-1.78,
6.781,16.72,-12.91,-4.94,0.40,3.93,-1.73,
6.782,17.37,-12.47,-5.26,0.40,3.93,-1.73,
6.784,17.37,-12.47,-5.26,0.76,3.84,-1.75,
6.784,18.13,-11.85,-5.83,0.76,3.84,-1.75,
6.788,18.97,-11.13,-6.76,0.76,3.84,-1.75,
6.789,18.97,-11.13,-6.76,1.15,3.69,-1.84,
6.793,18.97,-11.13,-6.76,1.56,3.49,-2.01,
6.794,19.57,-10.24,-7.95,1.56,3.49,-2.01,
6.798,19.57,-10.24,-7.95,1.98,3.26,-2.26,
6.798,19.41,-9.56,-9.50,1.98,3.26,-2.26,
6.808,18.35,-9.33,-11.22,1.98,3.26,-2.26,
6.809,18.35,-9.33,-11.22,2.38,3.00,-2.56,
6.809,16.81,-9.27,-12.97,2.38,3.00,-2.56,
6.809,16.81,-9.27,-12.97,2.75,2.73,-2.84,
6.812,16.81,-9.27,-12.97,3.07,2.45,-3.08,
6.812,15.19,-9.09,-14.86,3.07,2.45,-3.08,
6.837,15.19,-9.09,-14.86,3.33,2.19,-3.28,
6.838,13.28,-8.74,-16.70,3.33,2.19,-3.28,
6.838,13.28,-8.74,-16.70,3.53,1.93,-3.43,
6.839,10.84,-8.45,-18.07,3.53,1.93,-3.43,
6.839,10.84,-8.45,-18.07,3.67,1.68,-3.53,
6.84,8.56,-8.35,-18.98,3.67,1.68,-3.53,
6.84,6.47,-8.50,-19.60,3.67,1.68,-3.53,
6.841,6.47,-8.50,-19.60,3.78,1.44,-3.55,
6.841,4.44,-8.78,-19.81,3.78,1.44,-3.55,
6.842,4.44,-8.78,-19.81,3.87,1.23,-3.53,
6.842,2.77,-9.11,-19.83,3.87,1.23,-3.53,
6.842,2.77,-9.11,-19.83,3.95,1.07,-3.46,
6.846,2.77,-9.11,-19.83,4.04,0.94,-3.37,
6.847,1.08,-9.40,-19.83,4.04,0.94,-3.37,
6.856,-0.55,-9.70,-19.98,4.04,0.94,-3.37,
6.857,-0.55,-9.70,-19.98,4.14,0.80,-3.28,
6.857,-2.23,-10.09,-20.79,4.14,0.80,-3.28,
6.858,-2.23,-10.09,-20.79,4.27,0.63,-3.18,
6.861,-2.23,-10.09,-20.79,4.37,0.42,-3.05,
6.862,-4.21,-10.53,-22.10,4.37,0.42,-3.05,
6.883,-4.21,-10.53,-22.10,4.40,0.18,-2.89,
6.884,-6.20,-11.02,-23.58,4.40,0.18,-2.89,
6.885,-8.13,-11.54,-25.02,4.40,0.18,-2.89,
6.885,-8.13,-11.54,-25.02,4.34,-0.10,-2.68,
6.886,-8.13,-11.54,-25.02,4.18,-0.39,-2.42,
6.886,-9.96,-11.80,-26.10,4.18,-0.39,-2.42,
6.887,-8.75,-11.28,-28.26,4.18,-0.39,-2.42,
6.887,-8.75,-11.28,-28.26,3.95,-0.68,-2.12,
6.887,-8.75,-11.28,-28.26,3.62,-0.94,-1.88,
6.888,-11.04,-11.28,-28.50,3.62,-0.94,-1.88,
6.891,-15.75,-11.27,-28.37,3.62,-0.94,-1.88,
6.892,-15.75,-11.27,-28.37,3.24,-1.09,-1.64,
6.895,-19.36,-12.09,-27.07,3.24,-1.09,-1.64,
6.896,-19.36,-12.09,-27.07,2.86,-1.15,-1.23,
6.912,-19.36,-12.09,-27.07,2.48,-1.15,-0.63,
6.912,-18.44,-12.05,-26.29,2.48,-1.15,-0.63,
6.913,-18.44,-12.05,-26.29,2.10,-1.24,-0.03,
6.914,-13.97,-11.19,-26.09,2.10,-1.24,-0.03,
6.914,-12.10,-10.41,-23.67,2.10,-1.24,-0.03,
6.915,-12.10,-10.41,-23.67,1.76,-1.37,0.37,
6.915,-12.11,-10.64,-20.99,1.76,-1.37,0.37,
6.916,-12.11,-10.64,-20.99,1.54,-1.57,0.63,
6.938,-12.11,-10.64,-20.99,1.46,-1.81,0.87,
6.938,-11.43,-11.04,-19.86,1.46,-1.81,0.87,
6.939,-10.47,-10.82,-19.22,1.46,-1.81,0.87,
6.939,-10.47,-10.82,-19.22,1.43,-2.07,1.11,
6.94,-10.03,-10.30,-18.20,1.43,-2.07,1.11,
6.94,-10.03,-10.30,-18.20,1.40,-2.32,1.32,
6.94,-10.03,-10.30,-18.20,1.40,-2.59,1.51,
6.941,-9.76,-10.13,-17.14,1.40,-2.59,1.51,
6.941,-9.76,-10.13,-17.14,1.41,-2.87,1.72,
6.942,-9.33,-10.15,-16.47,1.41,-2.87,1.72,
6.944,-8.84,-10.07,-16.10,1.41,-2.87,1.72,
6.975,-8.84,-10.07,-16.10,1.43,-3.13,1.95,
6.975,-8.84,-10.07,-16.10,1.44,-3.37,2.18,
6.975,-8.23,-9.96,-15.63,1.44,-3.37,2.18,
6.976,-8.23,-9.96,-15.63,1.43,-3.57,2.42,
6.976,-7.59,-9.92,-15.14,1.43,-3.57,2.42,
6.977,-7.59,-9.92,-15.14,1.40,-3.73,2.66,
6.977,-6.93,-10.02,-14.68,1.40,-3.73,2.66,
6.977,-6.93,-10.02,-14.68,1.37,-3.85,2.90,
6.978,-6.21,-10.19,-14.31,1.37,-3.85,2.90,
6.978,-5.51,-10.29,-13.96,1.37,-3.85,2.90,
6.979,-5.51,-10.29,-13.96,1.32,-3.93,3.14,
6.979,-5.51,-10.29,-13.96,1.24,-4.00,3.39,
6.98,-4.72,-10.32,-13.76,1.24,-4.00,3.39,
6.98,-3.66,-10.24,-13.49,1.24,-4.00,3.39,
6.98,-3.66,-10.24,-13.49,1.16,-4.07,3.66,
6.994,-2.42,-10.09,-13.12,1.16,-4.07,3.66,
6.994,-2.42,-10.09,-13.12,1.07,-4.13,3.91,
6.994,-0.94,-9.94,-12.73,1.07,-4.13,3.91,
6.995,-0.94,-9.94,-12.73,0.97,-4.20,4.15,
6.995,-0.94,-9.94,-12.73,0.87,-4.25,4.38,
6.995,0.66,-9.70,-12.40,0.87,-4.25,4.38,
6.998,2.20,-9.32,-12.10,0.87,-4.25,4.38,
6.999,2.20,-9.32,-12.10,0.77,-4.28,4.60,
7.021,3.68,-8.90,-12.06,0.77,-4.28,4.60,
7.021,3.68,-8.90,-12.06,0.65,-4.29,4.80,
7.022,5.58,-8.49,-12.21,0.65,-4.29,4.80,
7.022,5.58,-8.49,-12.21,0.50,-4.28,5.00,
7.022,7.92,-7.86,-12.43,0.50,-4.28,5.00,
7.023,7.92,-7.86,-12.43,0.32,-4.29,5.19,
7.023,7.92,-7.86,-12.43,0.12,-4.31,5.33,
7.023,10.50,-7.02,-12.81,0.12,-4.31,5.33,
7.024,10.50,-7.02,-12.81,-0.13,-4.35,5.43,
