
time,ax,ay,az,wx,wy,wz,
0.002,2.50,2.11,1.87,0.54,-0.57,-0.07,
0.003,2.50,2.11,1.87,0.55,-0.63,-0.09,
0.003,2.82,2.42,2.28,0.55,-0.63,-0.09,
0.003,2.82,2.42,2.28,0.57,-0.69,-0.13,
0.014,2.82,2.42,2.28,0.61,-0.77,-0.16,
0.015,3.04,2.73,2.65,0.61,-0.77,-0.16,
0.015,3.14,3.04,2.97,0.61,-0.77,-0.16,
0.015,3.14,3.04,2.97,0.66,-0.85,-0.19,
0.016,3.28,3.38,3.27,0.66,-0.85,-0.19,
0.016,3.28,3.38,3.27,0.73,-0.95,-0.21,
0.027,3.53,3.78,3.56,0.73,-0.95,-0.21,
0.028,3.53,3.78,3.56,0.81,-1.05,-0.22,
0.028,3.85,4.21,3.89,0.81,-1.05,-0.22,
0.029,3.85,4.21,3.89,0.90,-1.15,-0.22,
0.029,4.33,4.68,4.23,0.90,-1.15,-0.22,
0.029,4.33,4.68,4.23,1.00,-1.25,-0.22,
0.034,4.96,5.17,4.57,1.00,-1.25,-0.22,
0.034,4.96,5.17,4.57,1.11,-1.35,-0.22,
0.042,5.61,5.67,4.97,1.11,-1.35,-0.22,
0.043,5.61,5.67,4.97,1.23,-1.45,-0.23,
0.044,6.34,6.22,5.45,1.23,-1.45,-0.23,
0.044,6.34,6.22,5.45,1.36,-1.57,-0.25,
0.049,7.24,6.73,5.67,1.36,-1.57,-0.25,
0.05,7.24,6.73,5.67,1.52,-1.70,-0.30,
0.053,7.24,6.73,5.67,1.67,-1.81,-0.40,
0.054,8.04,7.14,5.93,1.67,-1.81,-0.40,
0.058,8.04,7.14,5.93,1.81,-1.89,-0.53,
0.059,8.72,7.42,6.32,1.81,-1.89,-0.53,
0.063,8.72,7.42,6.32,1.96,-1.94,-0.68,
0.063,9.47,7.64,6.70,1.96,-1.94,-0.68,
0.076,10.14,7.90,6.95,1.96,-1.94,-0.68,
0.077,10.14,7.90,6.95,2.13,-1.99,-0.85,
0.078,10.14,7.90,6.95,2.30,-2.05,-1.04,
0.078,10.58,8.18,7.00,2.30,-2.05,-1.04,
0.079,10.69,8.46,6.84,2.30,-2.05,-1.04,
0.08,10.69,8.46,6.84,2.47,-2.14,-1.26,
0.082,10.69,8.46,6.84,2.62,-2.24,-1.48,
0.083,10.52,8.69,6.58,2.62,-2.24,-1.48,
0.099,10.52,8.69,6.58,2.74,-2.38,-1.70,
0.1,10.19,8.85,6.39,2.74,-2.38,-1.70,
0.101,9.80,8.91,6.42,2.74,-2.38,-1.70,
0.101,9.80,8.91,6.42,2.87,-2.58,-1.90,
0.101,9.49,8.89,6.68,2.87,-2.58,-1.90,
0.102,9.49,8.89,6.68,2.99,-2.86,-2.09,
0.119,9.05,8.72,6.81,2.99,-2.86,-2.09,
0.12,9.05,8.72,6.81,3.15,-3.21,-2.29,
0.12,9.05,8.72,6.81,3.29,-3.54,-2.49,
0.12,8.56,8.35,6.89,3.29,-3.54,-2.49,
0.121,8.18,7.95,7.36,3.29,-3.54,-2.49,
0.121,8.18,7.95,7.36,3.41,-3.76,-2.66,
0.121,7.89,7.65,8.42,3.41,-3.76,-2.66,
0.122,7.89,7.65,8.42,3.52,-3.91,-2.78,
0.122,7.60,7.41,9.97,3.52,-3.91,-2.78,
0.122,7.60,7.41,9.97,3.66,-4.07,-2.89,
0.14,7.37,7.34,11.52,3.66,-4.07,-2.89,
0.141,7.37,7.34,11.52,3.87,-4.28,-2.98,
0.141,7.37,7.34,11.52,4.17,-4.57,-3.08,
0.142,7.31,7.23,12.96,4.17,-4.57,-3.08,
0.142,7.27,6.94,14.29,4.17,-4.57,-3.08,
0.142,7.27,6.94,14.29,4.54,-4.94,-3.20,
0.143,7.27,6.94,14.29,4.98,-5.38,-3.34,
0.143,7.25,6.44,15.44,4.98,-5.38,-3.34,
0.147,7.25,6.44,15.44,5.46,-5.90,-3.51,
0.156,7.20,5.81,16.43,5.46,-5.90,-3.51,
0.157,7.20,5.81,16.43,5.98,-6.45,-3.68,
0.157,7.15,5.20,17.25,5.98,-6.45,-3.68,
0.161,7.15,5.20,17.25,6.50,-6.98,-3.87,
0.161,7.21,4.61,17.85,6.50,-6.98,-3.87,
0.161,7.21,4.61,17.85,7.01,-7.47,-4.08,
0.162,7.51,4.10,18.29,7.01,-7.47,-4.08,
0.166,7.51,4.10,18.29,7.49,-7.91,-4.32,
0.166,8.06,3.63,18.45,7.49,-7.91,-4.32,
0.177,8.57,3.02,18.33,7.49,-7.91,-4.32,
0.178,8.57,3.02,18.33,7.91,-8.28,-4.60,
0.178,8.57,3.02,18.33,8.26,-8.58,-4.91,
0.178,8.99,2.31,17.78,8.26,-8.58,-4.91,
0.18,8.99,2.31,17.78,8.53,-8.79,-5.24,
0.181,9.37,1.55,17.19,8.53,-8.79,-5.24,
0.212,9.58,0.81,16.67,8.53,-8.79,-5.24,
0.213,9.58,0.81,16.67,8.70,-8.92,-5.59,
0.213,9.58,0.81,16.67,8.78,-8.95,-5.95,
0.214,9.68,0.14,16.02,8.78,-8.95,-5.95,
0.214,9.68,0.14,16.02,8.78,-8.89,-6.29,
0.214,9.85,-0.61,15.15,8.78,-8.89,-6.29,
0.215,9.91,-1.53,14.27,8.78,-8.89,-6.29,
0.215,9.91,-1.53,14.27,8.70,-8.77,-6.62,
0.215,9.91,-1.53,14.27,8.53,-8.62,-6.94,
0.216,10.32,-2.61,13.86,8.53,-8.62,-6.94,
0.216,9.99,-3.39,13.60,8.53,-8.62,-6.94,
0.217,9.99,-3.39,13.60,8.30,-8.49,-7.24,
0.217,9.52,-3.87,13.41,8.30,-8.49,-7.24,
0.217,9.52,-3.87,13.41,8.05,-8.36,-7.51,
0.222,9.52,-3.87,13.41,7.79,-8.19,-7.74,
0.222,9.27,-4.38,13.19,7.79,-8.19,-7.74,
0.224,9.34,-4.90,13.09,7.79,-8.19,-7.74,
0.224,9.34,-4.90,13.09,7.53,-8.00,-7.93,
0.229,9.55,-5.35,13.07,7.53,-8.00,-7.93,
0.229,9.55,-5.35,13.07,7.24,-7.81,-8.09,
0.234,9.62,-5.75,12.96,7.24,-7.81,-8.09,
0.234,9.62,-5.75,12.96,6.95,-7.62,-8.23,
0.239,9.62,-5.75,12.96,6.66,-7.40,-8.36,
0.24,9.58,-6.12,12.86,6.66,-7.40,-8.36,
0.244,9.62,-6.63,12.92,6.66,-7.40,-8.36,
0.244,9.62,-6.63,12.92,6.35,-7.14,-8.45,
0.248,9.43,-7.00,13.12,6.35,-7.14,-8.45,
0.249,9.43,-7.00,13.12,6.06,-6.89,-8.52,
0.253,8.88,-7.18,13.18,6.06,-6.89,-8.52,
0.254,8.88,-7.18,13.18,5.78,-6.64,-8.58,
0.258,8.30,-7.16,13.13,5.78,-6.64,-8.58,
0.259,8.30,-7.16,13.13,5.53,-6.38,-8.60,
0.263,8.02,-7.24,13.01,5.53,-6.38,-8.60,
0.263,8.02,-7.24,13.01,5.29,-6.13,-8.59,
0.27,8.02,-7.24,13.01,5.08,-5.93,-8.57,
0.272,7.85,-7.49,12.72,5.08,-5.93,-8.57,
0.273,7.85,-7.49,12.72,4.86,-5.79,-8.52,
0.273,7.56,-7.83,12.57,4.86,-5.79,-8.52,
0.278,7.06,-8.13,12.50,4.86,-5.79,-8.52,
0.279,7.06,-8.13,12.50,4.66,-5.72,-8.45,
0.283,7.06,-8.13,12.50,4.47,-5.68,-8.37,
0.284,6.54,-8.25,12.58,4.47,-5.68,-8.37,
0.295,6.54,-8.25,12.58,4.31,-5.67,-8.26,
0.296,6.06,-8.19,12.88,4.31,-5.67,-8.26,
0.297,5.78,-7.98,13.34,4.31,-5.67,-8.26,
0.298,5.78,-7.98,13.34,4.20,-5.70,-8.12,
0.298,5.78,-7.98,13.34,4.13,-5.73,-7.97,
0.299,6.00,-7.94,13.67,4.13,-5.73,-7.97,
0.313,6.43,-8.04,13.68,4.13,-5.73,-7.97,
0.314,6.43,-8.04,13.68,4.12,-5.78,-7.84,
0.314,6.43,-8.04,13.68,4.13,-5.85,-7.72,
0.315,6.94,-8.25,13.41,4.13,-5.85,-7.72,
0.315,6.94,-8.25,13.41,4.14,-5.91,-7.63,
0.316,7.46,-8.44,12.91,4.14,-5.91,-7.63,
0.317,7.85,-8.84,11.83,4.14,-5.91,-7.63,
0.317,7.85,-8.84,11.83,4.14,-5.96,-7.55,
0.322,8.69,-9.54,9.34,4.14,-5.96,-7.55,
0.323,8.69,-9.54,9.34,4.09,-6.03,-7.47,
0.327,7.98,-8.81,10.05,4.09,-6.03,-7.47,
0.327,7.98,-8.81,10.05,3.95,-6.06,-7.43,
0.331,7.98,-8.81,10.05,3.85,-6.02,-7.41,
0.332,7.15,-7.92,11.04,3.85,-6.02,-7.41,
0.393,7.15,-7.92,11.04,3.81,-6.02,-7.36,
0.394,7.30,-7.41,10.73,3.81,-6.02,-7.36,
0.394,7.94,-7.40,9.49,3.81,-6.02,-7.36,
0.394,7.94,-7.40,9.49,3.78,-6.08,-7.29,
0.395,8.16,-7.61,8.50,3.78,-6.08,-7.29,
0.395,8.16,-7.61,8.50,3.72,-6.13,-7.25,
0.396,7.76,-7.87,7.36,3.72,-6.13,-7.25,
0.396,7.76,-7.87,7.36,3.62,-6.15,-7.23,
0.396,7.15,-7.66,6.11,3.62,-6.15,-7.23,
0.397,7.15,-7.66,6.11,3.48,-6.16,-7.21,
0.397,6.53,-7.17,4.92,3.48,-6.16,-7.21,
0.398,6.53,-7.17,4.92,3.28,-6.15,-7.15,
0.398,6.06,-6.70,3.92,3.28,-6.15,-7.15,
0.399,6.06,-6.70,3.92,3.00,-6.13,-7.04,
0.399,5.90,-6.34,3.44,3.00,-6.13,-7.04,
0.399,5.90,-6.34,3.44,2.68,-6.11,-6.88,
0.4,5.75,-6.30,3.02,2.68,-6.11,-6.88,
0.4,5.75,-6.30,3.02,2.34,-6.07,-6.71,
0.401,5.75,-6.30,3.02,2.01,-5.98,-6.54,
0.401,5.64,-6.15,2.81,2.01,-5.98,-6.54,
0.402,5.64,-6.15,2.81,1.69,-5.88,-6.35,
0.402,5.60,-5.79,2.74,1.69,-5.88,-6.35,
0.402,5.60,-5.79,2.74,1.39,-5.80,-6.16,
0.431,5.65,-5.35,1.48,1.39,-5.80,-6.16,
0.431,5.60,-4.63,2.08,1.39,-5.80,-6.16,
0.432,5.60,-4.63,2.08,1.09,-5.91,-5.95,
0.432,5.60,-4.63,2.08,0.80,-5.96,-5.74,
0.433,5.91,-4.30,2.69,0.80,-5.96,-5.74,
0.433,5.91,-4.30,2.69,0.55,-5.94,-5.56,
0.433,6.21,-4.11,3.28,0.55,-5.94,-5.56,
0.434,6.21,-4.11,3.28,0.32,-5.88,-5.41,
0.434,6.51,-4.00,3.90,0.32,-5.88,-5.41,
0.435,6.51,-4.00,3.90,0.14,-5.73,-5.26,
0.435,6.78,-3.99,4.01,0.14,-5.73,-5.26,
0.435,7.26,-4.05,3.78,0.14,-5.73,-5.26,
0.436,7.26,-4.05,3.78,-0.02,-5.53,-5.11,
0.437,7.26,-4.05,3.78,-0.17,-5.31,-4.97,
0.439,7.64,-4.14,3.40,-0.17,-5.31,-4.97,
0.44,7.64,-4.14,3.40,-0.31,-5.06,-4.87,
0.441,7.71,-4.09,3.20,-0.31,-5.06,-4.87,
0.441,7.71,-4.09,3.20,-0.45,-4.77,-4.79,
0.441,7.45,-3.88,3.35,-0.45,-4.77,-4.79,
0.442,7.07,-3.62,3.86,-0.45,-4.77,-4.79,
0.442,7.07,-3.62,3.86,-0.57,-4.46,-4.73,
0.449,7.07,-3.62,3.86,-0.67,-4.16,-4.67,
0.449,6.64,-3.34,4.48,-0.67,-4.16,-4.67,
0.45,6.04,-3.13,4.90,-0.67,-4.16,-4.67,
0.45,6.04,-3.13,4.90,-0.72,-3.87,-4.61,
0.453,5.29,-3.12,5.10,-0.72,-3.87,-4.61,
0.455,5.29,-3.12,5.10,-0.73,-3.60,-4.52,
0.458,4.49,-3.25,5.08,-0.73,-3.60,-4.52,
0.459,4.49,-3.25,5.08,-0.71,-3.33,-4.41,
0.463,3.67,-3.23,5.24,-0.71,-3.33,-4.41,
0.464,3.67,-3.23,5.24,-0.66,-3.06,-4.26,
0.468,2.92,-3.08,5.65,-0.66,-3.06,-4.26,
0.468,2.92,-3.08,5.65,-0.60,-2.77,-4.09,
0.479,2.92,-3.08,5.65,-0.49,-2.48,-3.90,
0.479,2.35,-2.88,6.15,-0.49,-2.48,-3.90,
0.48,2.35,-2.88,6.15,-0.34,-2.22,-3.71,
0.48,1.85,-2.87,6.41,-0.34,-2.22,-3.71,
0.482,1.85,-2.87,6.41,-0.15,-2.01,-3.51,
0.483,1.31,-2.96,6.20,-0.15,-2.01,-3.51,
0.487,0.91,-3.15,5.76,-0.15,-2.01,-3.51,
0.488,0.91,-3.15,5.76,0.04,-1.83,-3.28,
0.492,0.91,-3.15,5.76,0.23,-1.66,-3.04,
0.493,0.77,-3.26,5.23,0.23,-1.66,-3.04,
0.498,0.77,-3.26,5.23,0.39,-1.47,-2.82,
0.498,0.67,-3.23,4.61,0.39,-1.47,-2.82,
0.503,0.67,-3.23,4.61,0.54,-1.29,-2.62,
0.505,0.53,-3.10,4.09,0.54,-1.29,-2.62,
0.513,0.53,-2.91,3.57,0.54,-1.29,-2.62,
0.513,0.53,-2.91,3.57,0.65,-1.12,-2.42,
0.514,0.77,-2.87,3.14,0.65,-1.12,-2.42,
0.514,0.77,-2.87,3.14,0.76,-0.99,-2.23,
0.517,1.21,-3.02,2.66,0.76,-0.99,-2.23,
0.517,1.21,-3.02,2.66,0.85,-0.89,-2.07,
0.537,1.21,-3.02,2.66,0.93,-0.82,-1.94,
0.538,1.66,-3.25,2.21,0.93,-0.82,-1.94,
0.538,1.91,-3.39,1.74,0.93,-0.82,-1.94,
0.538,1.91,-3.39,1.74,1.01,-0.79,-1.85,
0.539,1.91,-3.39,1.74,1.08,-0.77,-1.78,
0.539,1.90,-3.42,1.23,1.08,-0.77,-1.78,
0.539,1.90,-3.42,1.23,1.13,-0.76,-1.72,
0.54,1.78,-3.41,0.62,1.13,-0.76,-1.72,
0.546,1.61,-3.37,-0.02,1.13,-0.76,-1.72,
0.546,1.61,-3.37,-0.02,1.16,-0.76,-1.66,
0.547,1.57,-3.42,-0.68,1.16,-0.76,-1.66,
0.547,1.57,-3.42,-0.68,1.17,-0.77,-1.61,
0.551,1.57,-3.42,-0.68,1.14,-0.80,-1.55,
0.551,1.65,-3.53,-1.40,1.14,-0.80,-1.55,
0.56,1.70,-3.67,-2.03,1.14,-0.80,-1.55,
0.561,1.70,-3.67,-2.03,1.08,-0.84,-1.50,
0.561,1.62,-3.73,-2.53,1.08,-0.84,-1.50,
0.562,1.62,-3.73,-2.53,0.99,-0.86,-1.47,
0.565,1.33,-3.66,-2.87,0.99,-0.86,-1.47,
0.566,1.33,-3.66,-2.87,0.88,-0.86,-1.44,
0.582,0.89,-3.57,-2.93,0.88,-0.86,-1.44,
0.583,0.89,-3.57,-2.93,0.74,-0.84,-1.41,
0.583,0.46,-3.52,-2.77,0.74,-0.84,-1.41,
0.584,0.46,-3.52,-2.77,0.61,-0.79,-1.35,
0.585,0.09,-3.45,-2.44,0.61,-0.79,-1.35,
0.586,0.09,-3.45,-2.44,0.48,-0.76,-1.28,
0.586,0.09,-3.45,-2.44,0.36,-0.71,-1.19,
0.587,-0.16,-3.46,-2.07,0.36,-0.71,-1.19,
0.591,-0.45,-3.48,-1.73,0.36,-0.71,-1.19,
0.591,-0.45,-3.48,-1.73,0.27,-0.67,-1.09,
0.595,-0.45,-3.48,-1.73,0.21,-0.62,-0.98,
0.596,-0.75,-3.45,-1.31,0.21,-0.62,-0.98,
0.6,-0.75,-3.45,-1.31,0.16,-0.57,-0.86,
0.6,-1.16,-3.35,-0.78,0.16,-0.57,-0.86,
0.612,-1.16,-3.35,-0.78,0.13,-0.51,-0.72,
0.614,-1.48,-3.12,-0.19,0.13,-0.51,-0.72,
0.614,-1.48,-3.12,-0.19,0.13,-0.44,-0.56,
0.615,-1.64,-2.89,0.43,0.13,-0.44,-0.56,
0.615,-1.63,-2.69,0.98,0.13,-0.44,-0.56,
0.616,-1.63,-2.69,0.98,0.16,-0.37,-0.39,
0.63,-1.31,-2.53,1.42,0.16,-0.37,-0.39,
0.631,-1.31,-2.53,1.42,0.21,-0.31,-0.23,
0.631,-1.31,-2.53,1.42,0.29,-0.25,-0.08,
0.632,-0.80,-2.42,1.66,0.29,-0.25,-0.08,
0.632,-0.80,-2.42,1.66,0.37,-0.20,0.05,
0.633,-0.33,-2.39,1.72,0.37,-0.20,0.05,
0.635,0.10,-2.37,1.76,0.37,-0.20,0.05,
0.676,0.10,-2.37,1.76,0.44,-0.14,0.14,
0.677,0.10,-2.37,1.76,0.51,-0.08,0.21,
0.677,0.36,-2.30,1.77,0.51,-0.08,0.21,
0.678,0.36,-2.30,1.77,0.57,0.01,0.25,
0.678,0.36,-2.30,1.77,0.62,0.10,0.28,
0.678,0.44,-2.20,1.75,0.62,0.10,0.28,
0.678,0.44,-2.17,1.62,0.62,0.10,0.28,
0.679,0.36,-2.20,1.53,0.62,0.10,0.28,
0.679,0.36,-2.20,1.53,0.65,0.19,0.29,
0.679,0.36,-2.20,1.53,0.67,0.27,0.29,
0.679,0.23,-2.30,1.49,0.67,0.27,0.29,
0.68,0.23,-2.30,1.49,0.66,0.35,0.29,
0.68,0.18,-2.39,1.37,0.66,0.35,0.29,
0.68,0.22,-2.53,1.24,0.66,0.35,0.29,
0.681,0.22,-2.53,1.24,0.64,0.41,0.28,
0.681,0.26,-2.84,1.02,0.64,0.41,0.28,
0.681,0.26,-2.84,1.02,0.59,0.45,0.25,
0.681,0.26,-2.84,1.02,0.52,0.47,0.19,
0.682,0.50,-3.39,0.73,0.52,0.47,0.19,
0.682,0.79,-4.16,0.42,0.52,0.47,0.19,
0.682,0.79,-4.16,0.42,0.42,0.48,0.10,
0.689,0.90,-5.06,0.23,0.42,0.48,0.10,
0.689,0.90,-5.06,0.23,0.27,0.46,-0.04,
0.692,0.94,-6.05,0.12,0.27,0.46,-0.04,
0.693,0.94,-6.05,0.12,0.10,0.42,-0.21,
0.697,0.71,-6.81,0.62,0.10,0.42,-0.21,
0.698,0.71,-6.81,0.62,-0.10,0.36,-0.43,
0.702,1.10,-8.66,0.57,-0.10,0.36,-0.43,
0.703,1.10,-8.66,0.57,-0.26,0.33,-0.68,
0.707,0.65,-10.54,0.56,-0.26,0.33,-0.68,
0.708,0.65,-10.54,0.56,-0.44,0.19,-0.95,
0.712,-0.45,-12.29,0.51,-0.44,0.19,-0.95,
0.713,-0.45,-12.29,0.51,-0.66,-0.01,-1.22,
0.717,-2.52,-13.64,1.00,-0.66,-0.01,-1.22,
0.717,-2.52,-13.64,1.00,-0.89,-0.19,-1.44,
0.73,-2.52,-13.64,1.00,-1.12,-0.36,-1.59,
0.731,-5.41,-14.37,2.51,-1.12,-0.36,-1.59,
0.732,-5.41,-14.37,2.51,-1.28,-0.52,-1.61,
0.733,-8.16,-14.55,5.13,-1.28,-0.52,-1.61,
0.733,-10.40,-14.69,8.01,-1.28,-0.52,-1.61,
0.734,-10.40,-14.69,8.01,-1.31,-0.71,-1.48,
0.736,-12.06,-14.90,10.57,-1.31,-0.71,-1.48,
0.737,-12.06,-14.90,10.57,-1.19,-0.95,-1.20,
0.748,-12.06,-14.90,10.57,-0.91,-1.21,-0.78,
0.749,-13.26,-15.07,12.68,-0.91,-1.21,-0.78,
0.749,-13.26,-15.07,12.68,-0.51,-1.45,-0.25,
0.75,-13.48,-15.07,14.05,-0.51,-1.45,-0.25,
0.753,-13.01,-14.76,14.53,-0.51,-1.45,-0.25,
0.754,-13.01,-14.76,14.53,-0.01,-1.63,0.35,
0.772,-11.86,-14.44,14.29,-0.01,-1.63,0.35,
0.774,-11.86,-14.44,14.29,0.51,-1.74,0.98,
0.774,-10.31,-14.00,13.27,0.51,-1.74,0.98,
0.775,-10.31,-14.00,13.27,1.03,-1.75,1.59,
0.775,-10.31,-14.00,13.27,1.50,-1.67,2.17,
0.776,-8.69,-13.23,11.80,1.50,-1.67,2.17,
0.776,-8.69,-13.23,11.80,1.88,-1.48,2.71,
0.777,-6.57,-12.48,9.98,1.88,-1.48,2.71,
0.777,-3.96,-11.91,8.02,1.88,-1.48,2.71,
0.778,-3.96,-11.91,8.02,2.16,-1.19,3.20,
0.781,-1.54,-11.19,5.93,2.16,-1.19,3.20,
0.781,-1.54,-11.19,5.93,2.34,-0.83,3.60,
0.785,0.29,-10.25,3.86,2.34,-0.83,3.60,
0.785,0.29,-10.25,3.86,2.42,-0.42,3.93,
0.794,1.78,-9.32,1.89,2.42,-0.42,3.93,
0.795,1.78,-9.32,1.89,2.42,0.04,4.23,
0.795,3.23,-8.58,0.16,2.42,0.04,4.23,
0.796,3.23,-8.58,0.16,2.35,0.48,4.49,
0.801,3.23,-8.58,0.16,2.21,0.88,4.74,
0.802,4.79,-7.91,-1.13,2.21,0.88,4.74,
0.817,6.27,-7.23,-1.81,2.21,0.88,4.74,
0.817,6.27,-7.23,-1.81,2.06,1.22,4.96,
0.818,6.27,-7.23,-1.81,1.94,1.48,5.16,
0.818,7.66,-6.50,-1.75,1.94,1.48,5.16,
0.818,7.66,-6.50,-1.75,1.87,1.64,5.36,
0.819,9.23,-5.87,-1.47,1.87,1.64,5.36,
0.819,9.23,-5.87,-1.47,1.87,1.69,5.54,
0.819,10.97,-5.50,-1.17,1.87,1.69,5.54,
0.83,10.97,-5.50,-1.17,1.94,1.62,5.68,
0.831,12.63,-5.30,-0.98,1.94,1.62,5.68,
0.831,13.66,-4.94,-0.76,1.94,1.62,5.68,
0.831,13.66,-4.94,-0.76,2.07,1.47,5.76,
0.834,14.22,-4.35,-0.53,2.07,1.47,5.76,
0.834,14.22,-4.35,-0.53,2.25,1.30,5.82,
0.85,14.98,-3.77,-0.58,2.25,1.30,5.82,
0.851,14.98,-3.77,-0.58,2.48,1.12,5.88,
0.852,14.98,-3.77,-0.58,2.72,0.96,5.95,
0.852,16.16,-3.45,-1.17,2.72,0.96,5.95,
0.853,16.16,-3.45,-1.17,2.92,0.84,5.99,
0.853,17.61,-3.20,-1.90,2.92,0.84,5.99,
0.853,17.61,-3.20,-1.90,3.08,0.80,5.99,
0.854,18.90,-2.86,-2.62,3.08,0.80,5.99,
0.89,18.90,-2.86,-2.62,3.19,0.88,5.91,
0.891,19.80,-2.14,-3.32,3.19,0.88,5.91,
0.891,20.40,-1.14,-3.93,3.19,0.88,5.91,
0.892,20.40,-1.14,-3.93,3.25,1.07,5.78,
0.892,21.25,-0.01,-4.39,3.25,1.07,5.78,
0.892,21.25,-0.01,-4.39,3.25,1.32,5.59,
0.893,21.25,-0.01,-4.39,3.21,1.59,5.37,
0.893,22.52,1.12,-4.82,3.21,1.59,5.37,
0.894,23.96,2.17,-5.28,3.21,1.59,5.37,
0.921,23.96,2.17,-5.28,3.15,1.85,5.08,
0.921,25.04,3.21,-5.76,3.15,1.85,5.08,
0.922,25.04,3.21,-5.76,3.08,2.09,4.72,
0.922,25.04,3.21,-5.76,3.02,2.27,4.26,
0.922,25.80,4.19,-6.39,3.02,2.27,4.26,
0.923,25.95,4.98,-7.03,3.02,2.27,4.26,
0.923,25.95,4.98,-7.03,2.96,2.37,3.71,
0.924,25.23,5.58,-7.64,2.96,2.37,3.71,
0.924,25.23,5.58,-7.64,2.91,2.38,3.12,
0.925,23.65,6.05,-8.06,2.91,2.38,3.12,
0.925,23.65,6.05,-8.06,2.85,2.32,2.52,
0.925,23.65,6.05,-8.06,2.78,2.19,1.93,
0.926,21.51,6.42,-8.33,2.78,2.19,1.93,
0.926,19.06,6.66,-8.46,2.78,2.19,1.93,
0.927,19.06,6.66,-8.46,2.70,2.03,1.41,
0.927,16.66,6.87,-8.57,2.70,2.03,1.41,
0.928,16.66,6.87,-8.57,2.61,1.84,0.96,
0.928,16.66,6.87,-8.57,2.49,1.66,0.59,
0.928,14.37,6.94,-8.68,2.49,1.66,0.59,
0.929,14.37,6.94,-8.68,2.34,1.50,0.29,
0.929,12.29,6.92,-8.87,2.34,1.50,0.29,
0.935,12.29,6.92,-8.87,2.14,1.35,0.06,
0.936,10.46,6.91,-9.04,2.14,1.35,0.06,
0.937,10.46,6.91,-9.04,1.91,1.21,-0.12,
0.938,9.07,6.92,-9.15,1.91,1.21,-0.12,
0.948,9.07,6.92,-9.15,1.65,1.07,-0.26,
0.949,8.15,6.91,-9.18,1.65,1.07,-0.26,
0.95,8.15,6.91,-9.18,1.36,0.94,-0.37,
0.95,7.61,6.91,-9.04,1.36,0.94,-0.37,
0.952,7.61,6.91,-9.04,1.06,0.82,-0.48,
1.025,7.21,6.93,-8.69,1.06,0.82,-0.48,
1.027,6.93,6.84,-8.22,1.06,0.82,-0.48,
1.028,6.93,6.84,-8.22,0.75,0.72,-0.59,
1.029,6.80,6.71,-7.49,0.75,0.72,-0.59,
1.029,6.80,6.71,-7.49,0.45,0.64,-0.72,
1.03,6.76,6.50,-6.61,0.45,0.64,-0.72,
1.03,6.76,6.50,-6.61,0.19,0.56,-0.85,
1.031,6.89,6.20,-5.66,0.19,0.56,-0.85,
1.031,6.89,6.20,-5.66,-0.04,0.47,-1.00,
1.032,6.78,5.81,-4.72,-0.04,0.47,-1.00,
1.032,6.78,5.81,-4.72,-0.22,0.38,-1.16,
1.033,6.40,5.47,-3.93,-0.22,0.38,-1.16,
1.033,6.40,5.47,-3.93,-0.35,0.31,-1.34,
1.034,6.40,5.47,-3.93,-0.44,0.26,-1.52,
1.034,5.74,5.10,-3.42,-0.44,0.26,-1.52,
1.035,5.74,5.10,-3.42,-0.50,0.23,-1.68,
1.036,5.01,4.67,-2.93,-0.50,0.23,-1.68,
1.036,4.69,4.05,-2.68,-0.50,0.23,-1.68,
1.037,4.69,4.05,-2.68,-0.54,0.22,-1.80,
1.037,4.52,3.27,-2.83,-0.54,0.22,-1.80,
1.038,4.52,3.27,-2.83,-0.57,0.22,-1.90,
1.039,4.52,3.27,-2.83,-0.59,0.22,-1.99,
1.04,4.13,2.65,-3.14,-0.59,0.22,-1.99,
1.041,4.13,2.65,-3.14,-0.63,0.22,-2.06,
1.041,3.66,2.09,-3.46,-0.63,0.22,-2.06,
1.042,3.09,1.47,-3.62,-0.63,0.22,-2.06,
1.042,3.09,1.47,-3.62,-0.69,0.20,-2.12,
1.043,2.59,0.87,-3.50,-0.69,0.20,-2.12,
1.043,2.59,0.87,-3.50,-0.77,0.17,-2.16,
1.044,2.23,0.33,-3.07,-0.77,0.17,-2.16,
1.044,2.23,0.33,-3.07,-0.87,0.11,-2.17,
1.045,2.23,0.33,-3.07,-0.95,0.05,-2.17,
1.045,1.69,-0.02,-2.29,-0.95,0.05,-2.17,
1.045,1.69,-0.02,-2.29,-1.00,0.01,-2.17,
1.046,1.09,-0.17,-1.30,-1.00,0.01,-2.17,
1.046,0.67,-0.25,-0.15,-1.00,0.01,-2.17,
1.047,0.67,-0.25,-0.15,-1.02,-0.03,-2.16,
1.047,0.67,-0.25,-0.15,-1.00,-0.06,-2.15,
1.048,0.25,-0.30,1.06,-1.00,-0.06,-2.15,
1.058,0.25,-0.30,1.06,-0.93,-0.07,-2.16,
1.059,-0.32,-0.46,2.31,-0.93,-0.07,-2.16,
1.059,-0.32,-0.46,2.31,-0.81,-0.05,-2.16,
1.06,-0.97,-0.63,3.41,-0.81,-0.05,-2.16,
1.06,-1.49,-0.80,4.03,-0.81,-0.05,-2.16,
1.061,-1.49,-0.80,4.03,-0.63,-0.03,-2.15,
1.064,-1.77,-1.16,4.34,-0.63,-0.03,-2.15,
1.065,-1.77,-1.16,4.34,-0.43,-0.01,-2.12,
1.068,-1.77,-1.16,4.34,-0.23,0.03,-2.10,
1.068,-2.16,-1.50,4.34,-0.23,0.03,-2.10,
1.077,-2.70,-1.67,4.09,-0.23,0.03,-2.10,
1.078,-2.70,-1.67,4.09,-0.03,0.10,-2.07,
1.079,-3.39,-1.74,3.71,-0.03,0.10,-2.07,
1.079,-3.39,-1.74,3.71,0.16,0.18,-2.04,
1.083,-3.39,-1.74,3.71,0.31,0.28,-1.99,
1.083,-4.09,-1.75,3.11,0.31,0.28,-1.99,
1.102,-4.09,-1.75,3.11,0.43,0.38,-1.91,
1.103,-4.66,-1.73,2.48,0.43,0.38,-1.91,
1.103,-5.19,-1.69,1.86,0.43,0.38,-1.91,
1.103,-5.19,-1.69,1.86,0.51,0.48,-1.83,
1.104,-5.19,-1.69,1.86,0.57,0.59,-1.72,
1.104,-5.56,-1.70,1.19,0.57,0.59,-1.72,
1.104,-5.56,-1.70,1.19,0.60,0.67,-1.59,
1.105,-5.72,-1.70,0.59,0.60,0.67,-1.59,
1.108,-5.66,-1.82,-0.03,0.60,0.67,-1.59,
1.108,-5.66,-1.82,-0.03,0.62,0.74,-1.44,
1.115,-5.66,-1.82,-0.03,0.61,0.79,-1.30,
1.116,-5.53,-1.80,-0.55,0.61,0.79,-1.30,
1.116,-5.53,-1.80,-0.55,0.59,0.83,-1.16,
1.117,-5.42,-1.71,-0.98,0.59,0.83,-1.16,
1.13,-5.21,-1.55,-1.30,0.59,0.83,-1.16,
1.172,-5.21,-1.55,-1.30,0.56,0.84,-1.02,
1.172,-4.81,-1.40,-1.61,0.56,0.84,-1.02,
1.173,-4.81,-1.40,-1.61,0.53,0.83,-0.88,
1.173,-4.81,-1.40,-1.61,0.51,0.78,-0.75,
1.174,-4.23,-1.32,-1.95,0.51,0.78,-0.75,
1.174,-4.23,-1.32,-1.95,0.48,0.71,-0.63,
1.175,-3.56,-1.33,-2.29,0.48,0.71,-0.63,
1.175,-3.56,-1.33,-2.29,0.45,0.62,-0.54,
1.176,-2.81,-1.34,-2.55,0.45,0.62,-0.54,
1.176,-2.81,-1.34,-2.55,0.40,0.53,-0.47,
1.176,-2.03,-1.39,-2.77,0.40,0.53,-0.47,
1.177,-1.44,-1.32,-2.92,0.40,0.53,-0.47,
1.177,-1.44,-1.32,-2.92,0.35,0.43,-0.44,
1.178,-1.18,-1.22,-2.95,0.35,0.43,-0.44,
1.178,-1.18,-1.22,-2.95,0.30,0.33,-0.43,
1.179,-1.12,-1.05,-2.96,0.30,0.33,-0.43,
1.179,-1.12,-1.05,-2.96,0.24,0.24,-0.43,
1.18,-1.12,-1.05,-2.96,0.17,0.17,-0.42,
1.18,-1.14,-0.93,-2.91,0.17,0.17,-0.42,
1.181,-1.14,-0.93,-2.91,0.10,0.10,-0.40,
1.181,-1.18,-0.85,-2.82,0.10,0.10,-0.40,
1.181,-1.18,-0.85,-2.82,0.03,0.05,-0.36,
1.182,-1.12,-0.82,-2.67,0.03,0.05,-0.36,
1.182,-1.12,-0.82,-2.67,-0.04,0.00,-0.32,
1.183,-1.01,-0.76,-2.51,-0.04,0.00,-0.32,
1.19,-1.01,-0.76,-2.51,-0.11,-0.03,-0.27,
1.19,-1.00,-0.68,-2.32,-0.11,-0.03,-0.27,
1.191,-1.00,-0.60,-2.17,-0.11,-0.03,-0.27,
1.191,-1.00,-0.60,-2.17,-0.18,-0.06,-0.21,
1.194,-1.00,-0.60,-2.17,-0.24,-0.08,-0.15,
1.195,-1.03,-0.42,-2.06,-0.24,-0.08,-0.15,
1.199,-1.03,-0.42,-2.06,-0.31,-0.11,-0.07,
1.2,-1.03,-0.24,-2.02,-0.31,-0.11,-0.07,
1.204,-0.94,-0.00,-2.02,-0.31,-0.11,-0.07,
1.205,-0.94,-0.00,-2.02,-0.37,-0.14,0.01,
1.212,-0.73,0.19,-2.11,-0.37,-0.14,0.01,
1.213,-0.73,0.19,-2.11,-0.44,-0.18,0.11,
1.214,-0.73,0.19,-2.11,-0.51,-0.22,0.20,
1.215,-0.38,0.38,-2.23,-0.51,-0.22,0.20,
1.221,-0.38,0.38,-2.23,-0.59,-0.27,0.29,
1.222,0.23,0.60,-2.50,-0.59,-0.27,0.29,
1.233,1.08,0.85,-2.96,-0.59,-0.27,0.29,
1.233,1.08,0.85,-2.96,-0.67,-0.35,0.37,
1.234,1.08,0.85,-2.96,-0.77,-0.46,0.42,
1.234,2.11,1.11,-3.58,-0.77,-0.46,0.42,
1.235,2.11,1.11,-3.58,-0.87,-0.59,0.44,
1.235,3.23,1.24,-4.28,-0.87,-0.59,0.44,
1.239,4.21,1.33,-4.93,-0.87,-0.59,0.44,
1.24,4.21,1.33,-4.93,-1.01,-0.74,0.41,
1.244,4.96,1.33,-5.45,-1.01,-0.74,0.41,
1.244,4.96,1.33,-5.45,-1.17,-0.88,0.34,
1.248,4.96,1.33,-5.45,-1.35,-0.99,0.24,
1.249,5.42,1.26,-5.88,-1.35,-0.99,0.24,
1.253,5.62,1.06,-6.20,-1.35,-0.99,0.24,
1.253,5.62,1.06,-6.20,-1.57,-1.04,0.12,
1.258,5.77,0.76,-6.37,-1.57,-1.04,0.12,
1.259,5.77,0.76,-6.37,-1.82,-1.06,-0.01,
1.263,5.87,0.35,-6.13,-1.82,-1.06,-0.01,
1.263,5.87,0.35,-6.13,-2.10,-1.02,-0.14,
1.268,5.92,-0.12,-5.55,-2.10,-1.02,-0.14,
1.268,5.92,-0.12,-5.55,-2.37,-0.93,-0.28,
1.278,5.92,-0.12,-5.55,-2.63,-0.81,-0.43,
1.279,5.74,-0.43,-4.70,-2.63,-0.81,-0.43,
1.279,5.74,-0.43,-4.70,-2.85,-0.68,-0.57,
1.28,5.20,-0.68,-3.67,-2.85,-0.68,-0.57,
1.282,4.54,-0.86,-2.54,-2.85,-0.68,-0.57,
1.283,4.54,-0.86,-2.54,-3.03,-0.55,-0.70,
1.287,3.91,-1.05,-1.35,-3.03,-0.55,-0.70,
1.288,3.91,-1.05,-1.35,-3.15,-0.44,-0.80,
1.298,3.91,-1.05,-1.35,-3.22,-0.35,-0.88,
1.299,3.26,-1.18,-0.28,-3.22,-0.35,-0.88,
1.299,3.26,-1.18,-0.28,-3.24,-0.30,-0.94,
1.3,2.64,-1.33,0.71,-3.24,-0.30,-0.94,
1.302,2.22,-1.48,1.51,-3.24,-0.30,-0.94,
1.303,2.22,-1.48,1.51,-3.21,-0.30,-0.98,
1.307,2.22,-1.48,1.51,-3.13,-0.34,-1.00,
1.308,1.98,-1.65,2.21,-3.13,-0.34,-1.00,
1.312,1.98,-1.65,2.21,-3.02,-0.40,-1.03,
1.312,1.79,-1.81,2.81,-3.02,-0.40,-1.03,
1.316,1.65,-2.01,3.32,-3.02,-0.40,-1.03,
1.317,1.65,-2.01,3.32,-2.88,-0.49,-1.05,
1.321,1.65,-2.01,3.32,-2.72,-0.58,-1.08,
1.322,1.47,-2.24,3.83,-2.72,-0.58,-1.08,
1.326,1.18,-2.47,4.24,-2.72,-0.58,-1.08,
1.327,1.18,-2.47,4.24,-2.54,-0.68,-1.11,
1.373,1.18,-2.47,4.24,-2.35,-0.77,-1.11,
1.374,0.94,-2.59,4.63,-2.35,-0.77,-1.11,
1.374,0.78,-2.58,5.05,-2.35,-0.77,-1.11,
1.375,0.78,-2.58,5.05,-2.14,-0.86,-1.10,
1.375,0.93,-2.56,5.26,-2.14,-0.86,-1.10,
1.376,0.93,-2.56,5.26,-1.92,-0.94,-1.07,
1.376,0.93,-2.56,5.26,-1.69,-1.02,-1.04,
1.377,1.19,-2.56,5.30,-1.69,-1.02,-1.04,
1.377,1.19,-2.56,5.30,-1.45,-1.10,-1.02,
1.378,1.40,-2.55,5.11,-1.45,-1.10,-1.02,
1.378,1.70,-2.71,4.55,-1.45,-1.10,-1.02,
1.379,1.70,-2.71,4.55,-1.23,-1.15,-1.01,
1.379,1.70,-2.71,4.55,-1.05,-1.18,-0.98,
1.38,2.09,-2.91,3.71,-1.05,-1.18,-0.98,
1.381,2.09,-2.91,3.71,-0.91,-1.19,-0.97,
1.411,2.48,-3.05,2.79,-0.91,-1.19,-0.97,
1.411,2.48,-3.05,2.79,-0.83,-1.18,-0.96,
1.412,2.66,-3.02,1.80,-0.83,-1.18,-0.96,
1.412,2.66,-3.02,1.80,-0.80,-1.14,-0.95,
1.413,2.63,-2.86,0.88,-0.80,-1.14,-0.95,
1.413,2.43,-2.65,-0.02,-0.80,-1.14,-0.95,
1.413,2.43,-2.65,-0.02,-0.82,-1.09,-0.92,
1.414,2.30,-2.55,-0.75,-0.82,-1.09,-0.92,
1.414,2.30,-2.55,-0.75,-0.90,-1.03,-0.87,
1.415,2.30,-2.55,-0.75,-1.02,-0.97,-0.80,
1.415,2.57,-2.58,-1.28,-1.02,-0.97,-0.80,
1.416,2.57,-2.58,-1.28,-1.17,-0.93,-0.73,
1.416,3.06,-2.55,-1.69,-1.17,-0.93,-0.73,
1.416,3.35,-2.31,-2.08,-1.17,-0.93,-0.73,
1.417,3.35,-2.31,-2.08,-1.34,-0.88,-0.67,
1.417,3.32,-2.05,-2.28,-1.34,-0.88,-0.67,
1.418,3.32,-2.05,-2.28,-1.52,-0.83,-0.62,
1.418,3.43,-2.01,-2.30,-1.52,-0.83,-0.62,
1.419,3.43,-2.01,-2.30,-1.70,-0.79,-0.57,
1.419,4.03,-2.38,-2.15,-1.70,-0.79,-0.57,
1.42,4.03,-2.38,-2.15,-1.89,-0.79,-0.51,
1.42,4.80,-2.99,-1.73,-1.89,-0.79,-0.51,
1.42,4.80,-2.99,-1.73,-2.07,-0.80,-0.47,
1.427,4.80,-2.99,-1.73,-2.23,-0.82,-0.47,
1.428,5.26,-3.45,-1.12,-2.23,-0.82,-0.47,
1.429,5.26,-3.45,-1.12,-2.35,-0.83,-0.50,
1.429,5.06,-3.60,-0.43,-2.35,-0.83,-0.50,
1.433,5.06,-3.60,-0.43,-2.44,-0.85,-0.51,
1.434,4.36,-3.63,0.29,-2.44,-0.85,-0.51,
1.445,4.36,-3.63,0.29,-2.49,-0.88,-0.49,
1.446,3.52,-3.55,1.07,-2.49,-0.88,-0.49,
1.446,3.52,-3.55,1.07,-2.52,-0.91,-0.43,
1.447,2.89,-3.50,1.81,-2.52,-0.91,-0.43,
1.473,2.48,-3.40,2.49,-2.52,-0.91,-0.43,
1.474,2.48,-3.40,2.49,-2.50,-0.93,-0.31,
1.474,2.48,-3.40,2.49,-2.45,-0.94,-0.18,
1.475,2.51,-3.09,2.89,-2.45,-0.94,-0.18,
1.475,2.51,-3.09,2.89,-2.37,-0.95,-0.02,
1.475,2.88,-2.48,2.90,-2.37,-0.95,-0.02,
1.476,3.41,-1.80,2.38,-2.37,-0.95,-0.02,
1.476,3.41,-1.80,2.38,-2.28,-0.94,0.14,
1.476,4.14,-1.19,1.59,-2.28,-0.94,0.14,
1.477,4.14,-1.19,1.59,-2.20,-0.94,0.29,
1.477,5.09,-0.61,0.62,-2.20,-0.94,0.29,
1.478,5.09,-0.61,0.62,-2.16,-0.93,0.41,
1.478,6.07,-0.04,-0.40,-2.16,-0.93,0.41,
1.478,6.07,-0.04,-0.40,-2.17,-0.89,0.50,
1.482,7.20,0.33,-1.24,-2.17,-0.89,0.50,
1.483,7.20,0.33,-1.24,-2.22,-0.79,0.56,
1.487,8.77,0.25,-1.75,-2.22,-0.79,0.56,
1.488,8.77,0.25,-1.75,-2.31,-0.67,0.58,
1.492,8.77,0.25,-1.75,-2.43,-0.55,0.54,
1.493,10.57,-0.22,-1.87,-2.43,-0.55,0.54,
1.497,10.57,-0.22,-1.87,-2.55,-0.41,0.41,
1.498,11.87,-0.85,-1.82,-2.55,-0.41,0.41,
1.502,11.87,-0.85,-1.82,-2.67,-0.27,0.19,
1.502,12.32,-1.34,-1.46,-2.67,-0.27,0.19,
1.515,12.32,-1.34,-1.46,-2.76,-0.13,-0.07,
1.516,11.78,-1.64,-0.63,-2.76,-0.13,-0.07,
1.517,11.78,-1.64,-0.63,-2.80,0.00,-0.30,
1.517,10.78,-2.04,0.83,-2.80,0.00,-0.30,
1.517,9.91,-2.57,2.84,-2.80,0.00,-0.30,
1.518,9.91,-2.57,2.84,-2.76,0.09,-0.48,
1.521,9.91,-2.57,2.84,-2.60,0.13,-0.61,
1.523,9.26,-3.10,5.07,-2.60,0.13,-0.61,
1.543,8.74,-3.39,7.11,-2.60,0.13,-0.61,
1.543,8.74,-3.39,7.11,-2.31,0.14,-0.71,
1.543,8.74,-3.39,7.11,-1.90,0.10,-0.79,
1.544,8.07,-3.33,8.47,-1.90,0.10,-0.79,
1.544,8.07,-3.33,8.47,-1.41,0.03,-0.83,
1.545,7.18,-3.17,8.78,-1.41,0.03,-0.83,
1.545,7.18,-3.17,8.78,-0.89,-0.08,-0.82,
1.546,6.35,-3.10,8.17,-0.89,-0.08,-0.82,
1.546,5.93,-3.14,6.86,-0.89,-0.08,-0.82,
1.564,5.93,-3.14,6.86,-0.40,-0.20,-0.77,
1.564,5.93,-3.14,6.86,0.02,-0.31,-0.68,
1.565,6.00,-3.09,5.15,0.02,-0.31,-0.68,
1.565,6.00,-3.09,5.15,0.36,-0.37,-0.57,
1.566,6.33,-3.06,3.15,0.36,-0.37,-0.57,
1.566,6.33,-3.06,3.15,0.59,-0.39,-0.46,
1.566,7.07,-3.44,1.15,0.59,-0.39,-0.46,
1.567,8.36,-4.42,-0.58,0.59,-0.39,-0.46,
1.567,8.36,-4.42,-0.58,0.70,-0.40,-0.36,
1.571,9.33,-5.51,-1.91,0.70,-0.40,-0.36,
1.571,9.33,-5.51,-1.91,0.69,-0.38,-0.32,
1.575,9.33,-5.51,-1.91,0.60,-0.29,-0.34,
1.576,9.21,-6.28,-2.81,0.60,-0.29,-0.34,
1.581,9.21,-6.28,-2.81,0.44,-0.15,-0.36,
1.581,7.94,-6.65,-3.33,0.44,-0.15,-0.36,
1.585,7.94,-6.65,-3.33,0.24,-0.00,-0.31,
1.586,6.11,-6.96,-3.36,0.24,-0.00,-0.31,
1.599,4.64,-7.65,-2.88,0.24,-0.00,-0.31,
1.6,4.64,-7.65,-2.88,0.03,0.15,-0.16,
1.601,4.06,-8.52,-2.06,0.03,0.15,-0.16,
1.601,4.06,-8.52,-2.06,-0.17,0.27,0.07,
1.602,4.06,-9.17,-1.19,-0.17,0.27,0.07,
1.602,4.06,-9.17,-1.19,-0.33,0.36,0.34,
1.604,4.00,-9.30,-0.72,-0.33,0.36,0.34,
1.605,4.00,-9.30,-0.72,-0.44,0.44,0.64,
1.623,4.00,-9.30,-0.72,-0.50,0.50,0.95,
1.658,3.61,-9.37,-0.41,-0.50,0.50,0.95,
1.659,3.24,-9.31,-0.01,-0.50,0.50,0.95,
1.659,3.24,-9.31,-0.01,-0.54,0.51,1.28,
1.66,3.24,-9.31,-0.01,-0.56,0.50,1.64,
1.66,3.15,-9.13,0.35,-0.56,0.50,1.64,
1.66,3.15,-9.13,0.35,-0.55,0.51,2.04,
1.661,3.55,-8.84,0.81,-0.55,0.51,2.04,
1.661,3.55,-8.84,0.81,-0.50,0.54,2.45,
1.661,4.54,-8.34,1.22,-0.50,0.54,2.45,
1.662,4.54,-8.34,1.22,-0.41,0.58,2.84,
1.662,5.99,-7.62,1.16,-0.41,0.58,2.84,
1.662,7.67,-6.73,0.56,-0.41,0.58,2.84,
1.663,7.67,-6.73,0.56,-0.31,0.61,3.19,
1.663,9.21,-5.85,-0.25,-0.31,0.61,3.19,
1.664,9.21,-5.85,-0.25,-0.20,0.63,3.49,
1.664,9.21,-5.85,-0.25,-0.11,0.66,3.75,
1.664,10.67,-5.01,-0.98,-0.11,0.66,3.75,
1.665,10.67,-5.01,-0.98,-0.04,0.68,3.96,
1.665,12.00,-4.22,-1.66,-0.04,0.68,3.96,
1.665,13.07,-3.50,-2.17,-0.04,0.68,3.96,
1.666,13.07,-3.50,-2.17,0.02,0.72,4.13,
1.666,13.07,-3.50,-2.17,0.06,0.77,4.27,
1.666,13.68,-2.88,-2.46,0.06,0.77,4.27,
1.671,13.68,-2.88,-2.46,0.09,0.86,4.39,
1.672,14.18,-2.36,-2.59,0.09,0.86,4.39,
1.679,14.18,-2.36,-2.59,0.11,0.97,4.50,
1.68,14.70,-1.90,-2.62,0.11,0.97,4.50,
1.681,14.70,-1.90,-2.62,0.14,1.08,4.61,
1.681,15.16,-1.59,-2.54,0.14,1.08,4.61,
1.685,15.50,-1.43,-2.21,0.14,1.08,4.61,
1.686,15.50,-1.43,-2.21,0.18,1.19,4.71,
1.687,15.50,-1.43,-2.21,0.25,1.28,4.82,
1.687,15.87,-1.45,-1.58,0.25,1.28,4.82,
1.701,15.87,-1.45,-1.58,0.35,1.36,4.93,
1.702,16.49,-1.51,-0.99,0.35,1.36,4.93,
1.702,16.49,-1.51,-0.99,0.49,1.46,5.03,
1.702,17.03,-1.46,-0.77,0.49,1.46,5.03,
1.703,17.03,-1.46,-0.77,0.65,1.56,5.12,
1.703,17.25,-1.46,-0.77,0.65,1.56,5.12,
1.713,17.09,-1.62,-0.78,0.65,1.56,5.12,
1.714,17.09,-1.62,-0.78,0.83,1.67,5.20,
1.714,17.09,-1.62,-0.78,1.00,1.77,5.30,
1.714,16.89,-1.96,-0.91,1.00,1.77,5.30,
1.716,16.89,-2.47,-1.10,1.00,1.77,5.30,
1.717,16.89,-2.47,-1.10,1.18,1.88,5.44,
1.722,16.89,-2.47,-1.10,1.33,2.00,5.59,
1.722,17.03,-3.14,-1.27,1.33,2.00,5.59,
1.735,17.03,-3.14,-1.27,1.49,2.12,5.76,
1.735,17.35,-3.67,-1.42,1.49,2.12,5.76,
1.736,17.98,-3.99,-1.77,1.49,2.12,5.76,
1.736,17.98,-3.99,-1.77,1.65,2.26,5.95,
1.737,17.98,-3.99,-1.77,1.80,2.36,6.14,
1.737,19.09,-4.24,-2.22,1.80,2.36,6.14,
1.744,20.36,-4.42,-2.70,1.80,2.36,6.14,
1.745,20.36,-4.42,-2.70,1.96,2.41,6.31,
1.746,21.48,-4.68,-3.24,1.96,2.41,6.31,
1.746,21.48,-4.68,-3.24,2.12,2.44,6.45,
1.751,21.48,-4.68,-3.24,2.27,2.46,6.57,
1.751,22.28,-4.97,-3.64,2.27,2.46,6.57,
1.755,23.12,-5.25,-4.02,2.27,2.46,6.57,
1.756,23.12,-5.25,-4.02,2.42,2.48,6.68,
1.761,24.49,-5.31,-4.90,2.42,2.48,6.68,
1.762,24.49,-5.31,-4.90,2.56,2.51,6.79,
1.766,24.49,-5.31,-4.90,2.68,2.57,6.89,
1.766,25.87,-5.37,-6.28,2.68,2.57,6.89,
1.77,25.87,-5.37,-6.28,2.75,2.63,6.95,
1.771,26.82,-5.43,-7.39,2.75,2.63,6.95,
1.775,27.23,-5.58,-7.89,2.75,2.63,6.95,
1.776,27.23,-5.58,-7.89,2.77,2.68,6.98,
1.78,27.09,-5.93,-7.82,2.77,2.68,6.98,
1.781,27.09,-5.93,-7.82,2.78,2.75,7.00,
1.785,26.55,-6.39,-7.19,2.78,2.75,7.00,
1.785,26.55,-6.39,-7.19,2.78,2.84,7.04,
1.801,26.55,-6.39,-7.19,2.81,2.94,7.11,
1.802,26.11,-7.02,-6.28,2.81,2.94,7.11,
1.802,26.11,-7.02,-6.28,2.88,3.01,7.22,
1.803,25.60,-7.80,-5.28,2.88,3.01,7.22,
1.804,25.60,-7.80,-5.28,3.01,3.11,7.37,
1.804,24.91,-8.89,-4.08,3.01,3.11,7.37,
1.805,24.91,-8.89,-4.08,3.21,3.21,7.57,
1.805,24.04,-10.05,-3.19,3.21,3.21,7.57,
1.835,24.04,-10.05,-3.19,3.44,3.31,7.85,
1.836,23.11,-11.40,-2.60,3.44,3.31,7.85,
1.838,23.08,-12.90,-2.42,3.44,3.31,7.85,
1.838,23.08,-12.90,-2.42,3.69,3.44,8.22,
1.839,23.08,-12.90,-2.42,3.94,3.65,8.66,
1.839,24.32,-14.18,-3.24,3.94,3.65,8.66,
1.84,26.40,-15.29,-5.22,3.94,3.65,8.66,
1.841,26.40,-15.29,-5.22,4.13,3.92,9.12,
1.842,28.34,-16.12,-7.57,4.13,3.92,9.12,
1.842,28.34,-16.12,-7.57,4.23,4.24,9.57,
1.843,30.10,-16.73,-9.48,4.23,4.24,9.57,
1.844,30.10,-16.73,-9.48,4.21,4.57,9.99,
1.844,30.10,-16.73,-9.48,4.09,4.90,10.40,
1.845,32.47,-17.09,-10.94,4.09,4.90,10.40,
1.846,35.79,-17.03,-12.80,4.09,4.90,10.40,
1.846,35.79,-17.03,-12.80,3.91,5.25,10.81,
1.889,35.79,-17.03,-12.80,3.66,5.63,11.16,
1.89,38.94,-16.83,-14.52,3.66,5.63,11.16,
1.891,41.59,-16.56,-14.70,3.66,5.63,11.16,
1.918,41.59,-16.56,-14.70,3.34,5.92,11.41,
1.919,43.65,-16.15,-13.45,3.34,5.92,11.41,
1.919,43.65,-16.15,-13.45,3.06,6.02,11.55,
1.92,43.65,-16.15,-13.45,2.93,5.93,11.61,
1.92,44.77,-15.56,-11.53,2.93,5.93,11.61,
1.921,44.48,-14.71,-9.57,2.93,5.93,11.61,
1.921,44.48,-14.71,-9.57,2.98,5.68,11.63,
1.922,44.48,-14.71,-9.57,3.20,5.33,11.64,
1.922,44.03,-13.82,-7.74,3.20,5.33,11.64,
1.923,43.56,-13.20,-6.31,3.20,5.33,11.64,
1.923,43.56,-13.20,-6.31,3.56,4.95,11.61,
1.924,43.56,-13.20,-6.31,4.03,4.62,11.55,
1.924,43.07,-12.67,-5.42,4.03,4.62,11.55,
1.925,42.58,-12.24,-5.17,4.03,4.62,11.55,
1.925,42.58,-12.24,-5.17,4.55,4.41,11.45,
1.926,42.58,-12.24,-5.17,5.07,4.37,11.35,
1.926,42.08,-11.79,-5.58,5.07,4.37,11.35,
1.927,42.08,-11.79,-5.58,5.52,4.50,11.26,
1.927,41.57,-11.21,-7.17,5.52,4.50,11.26,
1.928,41.05,-10.33,-9.20,5.52,4.50,11.26,
1.928,41.05,-10.33,-9.20,5.82,4.76,11.18,
1.929,41.05,-10.33,-9.20,5.97,5.09,11.09,
1.929,40.53,-8.92,-10.78,5.97,5.09,11.09,
1.93,40.00,-7.39,-11.81,5.97,5.09,11.09,
1.93,40.00,-7.39,-11.81,6.02,5.50,10.96,
1.93,39.46,-5.90,-12.31,6.02,5.50,10.96,
1.931,39.46,-5.90,-12.31,5.98,5.93,10.81,
1.931,39.46,-5.90,-12.31,5.89,6.29,10.64,
1.932,38.93,-4.27,-12.23,5.89,6.29,10.64,
1.933,38.39,-2.47,-12.76,5.89,6.29,10.64,
1.933,38.39,-2.47,-12.76,5.79,6.54,10.43,
1.933,37.87,-0.47,-14.01,5.79,6.54,10.43,
1.934,37.87,-0.47,-14.01,5.70,6.64,10.13,
1.946,37.37,1.83,-15.59,5.70,6.64,10.13,
1.947,37.37,1.83,-15.59,5.57,6.60,9.70,
1.947,37.37,1.83,-15.59,5.42,6.43,9.08,
1.948,36.89,4.10,-17.07,5.42,6.43,9.08,
1.948,36.45,6.05,-17.56,5.42,6.43,9.08,
1.949,36.45,6.05,-17.56,5.24,6.23,8.35,
1.957,36.04,7.33,-18.35,5.24,6.23,8.35,
1.957,36.04,7.33,-18.35,5.01,6.06,7.55,
1.957,36.04,7.33,-18.35,4.71,5.84,6.71,
1.958,35.67,8.25,-18.60,4.71,5.84,6.71,
2.059,35.67,8.25,-18.60,4.36,5.57,5.90,
2.06,35.34,8.76,-17.63,4.36,5.57,5.90,
2.061,35.03,8.40,-16.56,4.36,5.57,5.90,
2.061,35.03,8.40,-16.56,3.99,5.30,5.25,
2.062,35.03,8.40,-16.56,3.59,5.02,4.83,
2.062,34.74,7.25,-15.66,3.59,5.02,4.83,
2.063,34.74,7.25,-15.66,3.14,4.72,4.71,
2.064,34.18,6.02,-14.13,3.14,4.72,4.71,
2.064,28.69,5.07,-11.54,3.14,4.72,4.71,
2.065,28.69,5.07,-11.54,2.64,4.50,4.84,
2.065,25.93,4.15,-8.52,2.64,4.50,4.84,
2.066,25.93,4.15,-8.52,2.15,4.41,5.13,
2.066,25.93,4.15,-8.52,1.71,4.41,5.48,
2.067,25.69,3.58,-5.57,1.71,4.41,5.48,
2.068,27.01,3.44,-2.82,1.71,4.41,5.48,
2.069,27.01,3.44,-2.82,1.40,4.55,5.79,
2.069,27.01,3.44,-2.82,1.27,4.82,5.99,
2.07,28.84,3.64,-0.42,1.27,4.82,5.99,
2.07,28.84,3.64,-0.42,1.34,5.15,6.07,
2.07,30.57,4.05,1.12,1.34,5.15,6.07,
2.071,32.05,3.89,1.47,1.34,5.15,6.07,
2.072,32.05,3.89,1.47,1.62,5.40,6.07,
2.073,32.05,3.89,1.47,2.07,5.45,6.02,
2.073,32.37,3.72,0.10,2.07,5.45,6.02,
2.074,32.37,3.72,0.10,2.61,5.25,5.93,
2.076,32.13,3.91,-3.25,2.61,5.25,5.93,
2.077,31.91,4.16,-8.22,2.61,5.25,5.93,
2.078,31.91,4.16,-8.22,3.12,4.82,5.73,
2.078,31.91,4.16,-8.22,3.44,4.28,5.41,
2.078,31.71,4.90,-13.50,3.44,4.28,5.41,
2.079,31.54,6.46,-17.78,3.44,4.28,5.41,
2.08,31.54,6.46,-17.78,3.52,3.75,4.97,
2.08,31.54,6.46,-17.78,3.37,3.34,4.46,
2.081,31.39,7.77,-20.56,3.37,3.34,4.46,
2.082,31.39,7.77,-20.56,3.02,3.12,3.98,
2.082,31.25,8.26,-21.87,3.02,3.12,3.98,
2.083,29.16,8.26,-21.67,3.02,3.12,3.98,
2.083,29.16,8.26,-21.67,2.53,3.08,3.68,
2.084,24.22,8.17,-20.35,2.53,3.08,3.68,
2.084,24.22,8.17,-20.35,1.98,3.20,3.59,
2.085,24.22,8.17,-20.35,1.44,3.48,3.70,
2.085,20.71,8.20,-18.61,1.44,3.48,3.70,
2.086,20.71,8.20,-18.61,0.96,3.85,3.95,
2.086,18.87,8.42,-16.95,0.96,3.85,3.95,
2.087,18.87,8.42,-16.95,0.57,4.25,4.24,
2.087,18.34,8.56,-15.27,0.57,4.25,4.24,
2.088,18.96,8.79,-13.85,0.57,4.25,4.24,
2.089,18.96,8.79,-13.85,0.33,4.56,4.52,
2.089,20.48,9.60,-13.25,0.33,4.56,4.52,
2.09,20.48,9.60,-13.25,0.26,4.68,4.75,
2.09,22.89,10.62,-14.36,0.26,4.68,4.75,
2.091,22.89,10.62,-14.36,0.31,4.62,4.88,
2.091,22.89,10.62,-14.36,0.40,4.40,4.88,
2.092,25.61,11.56,-16.96,0.40,4.40,4.88,
2.093,25.61,11.56,-16.96,0.44,4.05,4.73,
2.094,27.88,12.69,-20.07,0.44,4.05,4.73,
2.109,27.88,12.69,-20.07,0.37,3.62,4.43,
2.139,28.68,13.85,-22.47,0.37,3.62,4.43,
2.14,28.68,13.85,-22.47,0.21,3.11,4.02,
2.14,27.73,14.86,-23.07,0.21,3.11,4.02,
2.141,27.73,14.86,-23.07,0.04,2.58,3.60,
2.141,25.22,15.48,-22.02,0.04,2.58,3.60,
2.142,22.07,15.74,-20.66,0.04,2.58,3.60,
2.142,22.07,15.74,-20.66,-0.12,2.09,3.27,
2.142,22.07,15.74,-20.66,-0.25,1.65,3.03,
2.143,19.05,15.65,-19.77,-0.25,1.65,3.03,
2.143,19.05,15.65,-19.77,-0.39,1.29,2.90,
2.144,16.06,15.13,-18.66,-0.39,1.29,2.90,
2.144,13.57,14.45,-16.84,-0.39,1.29,2.90,
2.145,13.57,14.45,-16.84,-0.56,1.05,2.85,
2.145,11.94,14.03,-14.29,-0.56,1.05,2.85,
2.145,11.94,14.03,-14.29,-0.74,0.95,2.89,
2.146,11.19,13.55,-11.35,-0.74,0.95,2.89,
2.146,11.19,13.55,-11.35,-0.89,0.94,3.00,
2.147,11.19,13.55,-11.35,-0.96,0.95,3.11,
2.147,11.14,13.12,-8.71,-0.96,0.95,3.11,
2.148,11.14,13.12,-8.71,-0.94,1.01,3.22,
2.148,11.29,13.04,-7.05,-0.94,1.01,3.22,
2.159,11.80,13.45,-6.14,-0.94,1.01,3.22,
2.159,11.80,13.45,-6.14,-0.88,1.13,3.31,
2.16,12.75,14.01,-6.08,-0.88,1.13,3.31,
2.16,12.75,14.01,-6.08,-0.78,1.35,3.36,
2.161,13.34,14.63,-6.60,-0.78,1.35,3.36,
2.162,13.34,14.63,-6.60,-0.66,1.64,3.33,
2.165,13.34,14.63,-6.60,-0.56,1.93,3.26,
2.166,13.94,15.27,-7.46,-0.56,1.93,3.26,
2.17,13.94,15.27,-7.46,-0.47,2.17,3.15,
2.171,14.45,15.62,-8.68,-0.47,2.17,3.15,
2.18,14.45,15.62,-8.68,-0.42,2.30,3.00,
2.18,14.41,15.49,-9.97,-0.42,2.30,3.00,
2.181,14.16,15.22,-11.15,-0.42,2.30,3.00,
2.182,14.16,15.22,-11.15,-0.42,2.33,2.84,
2.185,13.56,15.11,-11.85,-0.42,2.33,2.84,
2.186,13.56,15.11,-11.85,-0.48,2.26,2.66,
2.19,13.12,14.91,-11.99,-0.48,2.26,2.66,
2.19,13.12,14.91,-11.99,-0.60,2.13,2.49,
2.199,13.12,14.91,-11.99,-0.76,1.92,2.31,
2.2,12.99,14.46,-11.62,-0.76,1.92,2.31,
2.201,12.65,13.96,-10.74,-0.76,1.92,2.31,
2.201,12.65,13.96,-10.74,-0.90,1.66,2.12,
2.205,12.65,13.96,-10.74,-1.00,1.35,1.92,
2.206,11.95,13.38,-9.33,-1.00,1.35,1.92,
2.221,29.74,26.58,-7.82,-1.00,1.35,1.92,
2.222,29.74,26.58,-7.82,-0.98,0.79,1.74,
2.223,29.72,39.39,-19.81,-0.98,0.79,1.74,
2.223,29.72,39.39,-19.81,-0.34,-1.56,1.09,
2.224,29.69,41.45,-33.07,-0.34,-1.56,1.09,
2.225,29.69,41.45,-33.07,0.31,-4.49,-0.88,
2.225,29.69,41.45,-33.07,0.08,-5.75,-3.71,
2.226,29.64,31.32,-24.09,0.08,-5.75,-3.71,
2.231,-20.44,14.39,-4.13,0.08,-5.75,-3.71,
2.231,-20.44,14.39,-4.13,-0.71,-4.55,-4.69,
2.235,-34.42,7.69,4.54,-0.71,-4.55,-4.69,
2.236,-34.42,7.69,4.54,-1.05,-3.05,-3.49,
2.239,-34.42,7.69,4.54,-0.99,-2.32,-1.80,
2.239,-34.84,5.71,2.22,-0.99,-2.32,-1.80,
2.25,-29.12,3.81,-5.27,-0.99,-2.32,-1.80,
2.252,-29.12,3.81,-5.27,-1.02,-1.85,-0.30,
2.253,-29.12,3.81,-5.27,-1.42,-1.12,1.02,
2.253,-14.54,5.57,-7.66,-1.42,-1.12,1.02,
2.253,-14.54,5.57,-7.66,-1.87,-0.60,1.74,
2.254,-2.22,8.20,-5.24,-1.87,-0.60,1.74,
2.258,7.60,10.52,-2.90,-1.87,-0.60,1.74,
2.258,7.60,10.52,-2.90,-2.07,-0.40,1.90,
2.276,12.21,10.78,-3.16,-2.07,-0.40,1.90,
2.277,12.21,10.78,-3.16,-2.08,-0.25,1.68,
2.278,12.21,10.78,-3.16,-2.08,0.12,1.24,
2.278,10.56,10.24,-3.09,-2.08,0.12,1.24,
2.278,4.26,8.55,-1.85,-2.08,0.12,1.24,
2.279,4.26,8.55,-1.85,-2.08,0.52,0.82,
2.279,-2.90,5.75,-0.53,-2.08,0.52,0.82,
2.279,-2.90,5.75,-0.53,-2.02,0.74,0.61,
2.283,-2.90,5.75,-0.53,-1.90,0.85,0.70,
2.283,-7.59,3.21,1.37,-1.90,0.85,0.70,
2.3,-9.69,1.16,3.43,-1.90,0.85,0.70,
2.301,-9.69,1.16,3.43,-1.73,0.92,0.99,
2.301,-9.19,-0.21,5.19,-1.73,0.92,0.99,
2.302,-9.19,-0.21,5.19,-1.49,0.96,1.38,
2.302,-6.66,-0.93,6.47,-1.49,0.96,1.38,
2.302,-6.66,-0.93,6.47,-1.17,0.93,1.77,
2.303,-3.01,-0.90,7.29,-1.17,0.93,1.77,
2.303,-3.01,-0.90,7.29,-0.80,0.91,2.08,
2.339,-3.01,-0.90,7.29,-0.42,0.94,2.25,
2.339,0.49,-0.30,7.37,-0.42,0.94,2.25,
2.34,3.02,0.18,6.93,-0.42,0.94,2.25,
2.34,3.02,0.18,6.93,-0.04,0.99,2.29,
2.341,4.11,0.21,6.27,-0.04,0.99,2.29,
2.341,4.11,0.21,6.27,0.31,1.02,2.24,
2.341,3.91,-0.05,5.47,0.31,1.02,2.24,
2.342,3.91,-0.05,5.47,0.63,1.00,2.15,
2.342,3.91,-0.05,5.47,0.93,0.96,2.07,
2.342,3.34,0.07,4.53,0.93,0.96,2.07,
2.343,3.34,0.07,4.53,1.18,0.88,2.01,
2.343,1.98,-0.27,3.35,1.18,0.88,2.01,
2.343,1.98,-0.27,3.35,1.36,0.81,2.00,
2.344,-0.50,-1.48,1.63,1.36,0.81,2.00,
2.344,-0.50,-1.48,1.63,1.41,0.88,2.14,
2.374,-1.47,-1.77,0.46,1.41,0.88,2.14,
2.375,-1.47,-1.77,0.46,1.39,1.03,2.37,
2.375,-0.01,-1.48,-0.36,1.39,1.03,2.37,
2.376,-0.01,-1.48,-0.36,1.35,1.18,2.57,
2.376,2.60,-1.20,-1.03,1.35,1.18,2.57,
2.376,2.60,-1.20,-1.03,1.32,1.26,2.70,
2.377,5.38,-0.74,-1.92,1.32,1.26,2.70,
2.377,5.38,-0.74,-1.92,1.31,1.25,2.74,
2.378,8.08,-0.63,-2.41,1.31,1.25,2.74,
2.378,8.08,-0.63,-2.41,1.31,1.31,2.71,
2.378,13.33,-0.71,-1.91,1.31,1.31,2.71,
2.379,13.33,-0.71,-1.91,1.31,1.48,2.56,
2.379,16.88,0.26,-3.47,1.31,1.48,2.56,
2.38,16.88,0.26,-3.47,1.35,1.41,2.30,
2.38,18.75,2.13,-4.54,1.35,1.41,2.30,
2.381,18.75,2.13,-4.54,1.44,1.21,1.94,
2.381,18.98,3.25,-6.36,1.44,1.21,1.94,
2.392,18.98,3.25,-6.36,1.51,0.91,1.60,
2.393,17.01,3.63,-8.88,1.51,0.91,1.60,
2.393,17.01,3.63,-8.88,1.47,0.61,1.41,
2.394,16.16,4.27,-10.47,1.47,0.61,1.41,
2.399,14.22,5.36,-12.57,1.47,0.61,1.41,
2.401,14.22,5.36,-12.57,1.33,0.26,1.22,
2.402,14.22,5.36,-12.57,1.08,-0.11,1.09,
2.403,12.62,6.22,-14.09,1.08,-0.11,1.09,
2.443,12.62,6.22,-14.09,0.74,-0.45,1.08,
2.444,11.90,6.72,-14.80,0.74,-0.45,1.08,
2.444,11.90,6.72,-14.80,0.35,-0.75,1.12,
2.445,12.05,7.20,-15.22,0.35,-0.75,1.12,
2.445,12.05,7.20,-15.22,-0.11,-0.96,1.17,
2.445,12.90,7.43,-15.55,-0.11,-0.96,1.17,
2.446,14.22,7.45,-15.60,-0.11,-0.96,1.17,
2.447,14.22,7.45,-15.60,-0.60,-1.03,1.22,
2.447,15.90,7.50,-15.35,-0.60,-1.03,1.22,
2.448,15.90,7.50,-15.35,-1.12,-0.98,1.24,
2.448,15.90,7.50,-15.35,-1.67,-0.85,1.20,
2.448,17.85,7.68,-14.91,-1.67,-0.85,1.20,
2.449,17.85,7.68,-14.91,-2.24,-0.66,1.10,
2.45,19.87,7.97,-14.03,-2.24,-0.66,1.10,
2.45,19.87,7.97,-14.03,-2.79,-0.44,0.90,
2.451,22.13,8.34,-12.55,-2.79,-0.44,0.90,
2.452,22.13,8.34,-12.55,-3.30,-0.23,0.58,
2.452,24.61,8.68,-10.44,-3.30,-0.23,0.58,
2.453,24.61,8.68,-10.44,-3.69,-0.04,0.14,
2.453,26.45,8.74,-7.88,-3.69,-0.04,0.14,
2.454,27.06,8.43,-5.19,-3.69,-0.04,0.14,
2.454,27.06,8.43,-5.19,-3.94,0.09,-0.42,
2.458,27.06,8.43,-5.19,-4.04,0.16,-1.01,
2.459,26.20,7.97,-2.85,-4.04,0.16,-1.01,
2.468,26.20,7.97,-2.85,-4.00,0.20,-1.57,
2.469,24.29,7.49,-0.44,-4.00,0.20,-1.57,
2.469,22.13,7.17,2.04,-4.00,0.20,-1.57,
2.47,22.13,7.17,2.04,-3.84,0.22,-2.03,
2.473,22.13,7.17,2.04,-3.54,0.20,-2.38,
2.473,20.19,7.06,4.49,-3.54,0.20,-2.38,
2.492,18.52,7.07,6.28,-3.54,0.20,-2.38,
2.493,18.52,7.07,6.28,-3.09,0.11,-2.64,
2.494,18.52,7.07,6.28,-2.51,-0.07,-2.84,
2.494,17.02,7.02,6.81,-2.51,-0.07,-2.84,
2.494,17.02,7.02,6.81,-1.89,-0.31,-2.97,
2.495,16.11,6.92,6.05,-1.89,-0.31,-2.97,
2.495,15.93,7.01,4.37,-1.89,-0.31,-2.97,
2.496,15.93,7.01,4.37,-1.29,-0.57,-3.05,
2.498,15.93,7.01,4.37,-0.78,-0.81,-3.10,
2.498,16.25,7.06,2.21,-0.78,-0.81,-3.10,
2.502,16.67,6.99,0.05,-0.78,-0.81,-3.10,
2.503,16.67,6.99,0.05,-0.42,-0.98,-3.17,
2.506,16.67,6.99,0.05,-0.18,-1.05,-3.24,
2.507,17.26,7.06,-1.75,-0.18,-1.05,-3.24,
2.515,18.27,7.19,-3.24,-0.18,-1.05,-3.24,
2.517,18.27,7.19,-3.24,-0.05,-1.00,-3.32,
2.517,19.42,7.22,-4.38,-0.05,-1.00,-3.32,
2.518,19.42,7.22,-4.38,-0.01,-0.90,-3.43,
2.522,20.65,7.12,-5.10,-0.01,-0.90,-3.43,
2.522,20.65,7.12,-5.10,-0.01,-0.81,-3.57,
2.536,22.10,6.93,-5.23,-0.01,-0.81,-3.57,
2.537,22.10,6.93,-5.23,-0.03,-0.77,-3.76,
2.538,23.38,6.72,-5.12,-0.03,-0.77,-3.76,
2.538,23.38,6.72,-5.12,-0.03,-0.82,-4.01,
2.539,24.18,6.35,-5.03,-0.03,-0.82,-4.01,
2.539,24.18,6.35,-5.03,0.01,-0.97,-4.29,
2.541,24.18,6.35,-5.03,0.08,-1.22,-4.61,
2.541,24.44,5.69,-5.02,0.08,-1.22,-4.61,
2.546,24.44,5.69,-5.02,0.17,-1.53,-4.93,
2.546,24.24,4.79,-5.11,0.17,-1.53,-4.93,
2.551,23.84,3.86,-5.22,0.17,-1.53,-4.93,
2.552,23.84,3.86,-5.22,0.26,-1.86,-5.23,
2.555,23.27,2.89,-5.56,0.26,-1.86,-5.23,
2.556,23.27,2.89,-5.56,0.32,-2.18,-5.50,
2.566,22.69,1.88,-5.95,0.32,-2.18,-5.50,
2.567,22.69,1.88,-5.95,0.34,-2.44,-5.73,
2.568,22.69,1.88,-5.95,0.29,-2.62,-5.92,
2.568,22.37,0.95,-6.31,0.29,-2.62,-5.92,
2.57,21.99,0.12,-6.72,0.29,-2.62,-5.92,
2.571,21.99,0.12,-6.72,0.19,-2.72,-6.08,
2.575,21.45,-0.89,-6.94,0.19,-2.72,-6.08,
2.575,21.45,-0.89,-6.94,0.02,-2.74,-6.23,
2.599,21.45,-0.89,-6.94,-0.19,-2.71,-6.34,
2.6,20.84,-1.98,-6.99,-0.19,-2.71,-6.34,
2.6,20.84,-1.98,-6.99,-0.44,-2.62,-6.39,
2.63,20.08,-2.71,-6.68,-0.44,-2.62,-6.39,
2.63,19.36,-3.36,-5.98,-0.44,-2.62,-6.39,
2.631,19.36,-3.36,-5.98,-0.70,-2.48,-6.41,
2.631,18.92,-4.02,-5.19,-0.70,-2.48,-6.41,
2.632,18.92,-4.02,-5.19,-0.94,-2.34,-6.40,
2.632,18.67,-4.57,-4.28,-0.94,-2.34,-6.40,
2.633,18.67,-4.57,-4.28,-1.15,-2.25,-6.37,
2.633,18.67,-4.57,-4.28,-1.30,-2.23,-6.32,
2.633,18.38,-5.03,-3.13,-1.30,-2.23,-6.32,
2.634,18.38,-5.03,-3.13,-1.39,-2.27,-6.27,
2.635,18.14,-5.46,-1.69,-1.39,-2.27,-6.27,
2.635,18.22,-5.86,-0.18,-1.39,-2.27,-6.27,
2.636,18.22,-5.86,-0.18,-1.42,-2.36,-6.21,
2.636,18.22,-5.86,-0.18,-1.39,-2.49,-6.15,
2.637,18.75,-6.34,1.16,-1.39,-2.49,-6.15,
2.637,18.75,-6.34,1.16,-1.30,-2.65,-6.11,
2.638,19.40,-6.90,2.34,-1.30,-2.65,-6.11,
2.638,19.40,-6.90,2.34,-1.16,-2.81,-6.09,
2.638,19.95,-7.49,3.50,-1.16,-2.81,-6.09,
2.639,19.95,-7.49,3.50,-1.00,-2.96,-6.09,
2.639,20.37,-8.04,4.60,-1.00,-2.96,-6.09,
2.64,20.37,-8.04,4.60,-0.80,-3.09,-6.11,
2.64,20.67,-8.41,5.51,-0.80,-3.09,-6.11,
2.646,20.67,-8.41,5.51,-0.58,-3.20,-6.14,
2.647,20.95,-8.74,6.26,-0.58,-3.20,-6.14,
2.648,20.95,-8.74,6.26,-0.34,-3.29,-6.18,
2.648,21.07,-9.15,6.88,-0.34,-3.29,-6.18,
2.653,20.97,-9.61,7.45,-0.34,-3.29,-6.18,
2.654,20.97,-9.61,7.45,-0.10,-3.36,-6.21,
2.66,20.93,-10.01,7.91,-0.10,-3.36,-6.21,
2.662,20.93,-10.01,7.91,0.15,-3.39,-6.23,
2.663,20.93,-10.01,7.91,0.40,-3.37,-6.22,
2.664,20.77,-10.11,7.96,0.40,-3.37,-6.22,
2.668,20.77,-10.11,7.96,0.64,-3.27,-6.20,
2.668,20.53,-10.08,7.51,0.64,-3.27,-6.20,
2.674,20.23,-10.11,6.77,0.64,-3.27,-6.20,
2.675,20.23,-10.11,6.77,0.84,-3.09,-6.16,
2.68,20.23,-10.11,6.77,1.00,-2.87,-6.12,
2.681,19.93,-10.20,5.94,1.00,-2.87,-6.12,
2.684,19.93,-10.20,5.94,1.12,-2.66,-6.09,
2.685,19.82,-10.35,5.21,1.12,-2.66,-6.09,
2.688,19.82,-10.35,5.21,1.21,-2.49,-6.05,
2.689,20.05,-10.50,4.32,1.21,-2.49,-6.05,
2.692,20.05,-10.50,4.32,1.28,-2.35,-6.02,
2.692,20.55,-10.72,3.34,1.28,-2.35,-6.02,
2.701,20.82,-10.88,2.17,1.28,-2.35,-6.02,
2.703,20.82,-10.88,2.17,1.33,-2.30,-6.01,
2.703,20.82,-10.88,2.17,1.34,-2.31,-6.02,
2.704,20.63,-10.98,1.16,1.34,-2.31,-6.02,
2.718,20.63,-10.98,1.16,1.31,-2.36,-6.05,
2.719,20.13,-10.96,0.26,1.31,-2.36,-6.05,
2.719,20.13,-10.96,0.26,1.25,-2.46,-6.07,
2.72,19.71,-10.98,-0.50,1.25,-2.46,-6.07,
2.72,19.71,-10.98,-0.50,1.14,-2.58,-6.06,
2.72,19.33,-10.97,-0.98,1.14,-2.58,-6.06,
2.721,19.33,-10.97,-0.98,1.01,-2.70,-6.04,
2.722,18.91,-11.07,-1.30,1.01,-2.70,-6.04,
2.734,18.91,-11.07,-1.30,0.86,-2.81,-6.01,
2.735,18.44,-11.14,-1.46,0.86,-2.81,-6.01,
2.735,18.09,-11.19,-1.46,0.86,-2.81,-6.01,
2.736,18.09,-11.19,-1.46,0.69,-2.90,-5.96,
2.736,18.09,-11.19,-1.46,0.51,-2.98,-5.89,
2.737,17.92,-11.25,-1.44,0.51,-2.98,-5.89,
2.741,17.92,-11.25,-1.44,0.32,-3.05,-5.82,
2.742,18.23,-11.34,-1.39,0.32,-3.05,-5.82,
2.746,18.23,-11.34,-1.39,0.12,-3.10,-5.74,
2.747,18.88,-11.33,-1.28,0.12,-3.10,-5.74,
2.751,18.88,-11.33,-1.28,-0.07,-3.13,-5.70,
2.751,19.47,-11.29,-1.05,-0.07,-3.13,-5.70,
2.756,19.47,-11.29,-1.05,-0.25,-3.15,-5.69,
2.757,19.65,-11.30,-0.57,-0.25,-3.15,-5.69,
2.761,19.65,-11.30,-0.57,-0.41,-3.16,-5.72,
2.762,19.64,-11.42,0.09,-0.41,-3.16,-5.72,
2.765,19.74,-11.62,0.69,-0.41,-3.16,-5.72,
2.766,19.74,-11.62,0.69,-0.53,-3.16,-5.74,
2.77,19.74,-11.62,0.69,-0.62,-3.18,-5.76,
2.771,20.00,-11.75,1.11,-0.62,-3.18,-5.76,
2.775,20.33,-11.80,1.51,-0.62,-3.18,-5.76,
2.776,20.33,-11.80,1.51,-0.68,-3.22,-5.77,
2.78,20.58,-11.87,2.13,-0.68,-3.22,-5.77,
2.781,20.58,-11.87,2.13,-0.71,-3.30,-5.80,
2.785,20.58,-11.87,2.13,-0.71,-3.40,-5.85,
2.786,20.76,-12.02,2.75,-0.71,-3.40,-5.85,
2.789,20.76,-12.02,2.75,-0.67,-3.54,-5.91,
2.79,20.98,-12.16,3.05,-0.67,-3.54,-5.91,
2.827,20.98,-12.16,3.05,-0.61,-3.70,-5.97,
2.828,21.06,-12.35,3.26,-0.61,-3.70,-5.97,
2.829,21.06,-12.35,3.26,-0.53,-3.91,-6.02,
2.829,20.83,-12.49,3.41,-0.53,-3.91,-6.02,
2.83,20.83,-12.49,3.41,-0.46,-4.11,-6.07,
2.831,20.32,-12.61,3.53,-0.46,-4.11,-6.07,
2.831,20.32,-12.61,3.53,-0.40,-4.28,-6.10,
2.832,19.63,-12.76,3.76,-0.40,-4.28,-6.10,
2.832,18.82,-12.95,3.63,-0.40,-4.28,-6.10,
2.833,18.82,-12.95,3.63,-0.35,-4.43,-6.09,
2.834,18.82,-12.95,3.63,-0.34,-4.54,-6.05,
2.835,18.28,-12.98,3.34,-0.34,-4.54,-6.05,
2.835,18.28,-12.98,3.34,-0.35,-4.63,-5.96,
2.836,18.44,-12.88,3.04,-0.35,-4.63,-5.96,
2.836,19.04,-12.69,2.63,-0.35,-4.63,-5.96,
2.867,19.04,-12.69,2.63,-0.39,-4.71,-5.86,
2.868,19.04,-12.69,2.63,-0.44,-4.78,-5.78,
2.868,19.53,-12.54,2.06,-0.44,-4.78,-5.78,
2.869,19.53,-12.54,2.06,-0.52,-4.84,-5.72,
2.87,19.81,-12.32,1.34,-0.52,-4.84,-5.72,
2.87,19.90,-12.13,0.84,-0.52,-4.84,-5.72,
2.871,19.90,-12.13,0.84,-0.63,-4.93,-5.69,
2.872,19.90,-12.13,0.84,-0.77,-5.02,-5.65,
2.872,19.95,-11.91,0.52,-0.77,-5.02,-5.65,
2.873,19.95,-11.91,0.52,-0.93,-5.09,-5.59,
2.873,19.97,-11.72,0.54,-0.93,-5.09,-5.59,
2.874,20.00,-11.53,0.74,-0.93,-5.09,-5.59,
2.875,20.00,-11.53,0.74,-1.08,-5.11,-5.53,
2.875,20.07,-11.42,1.17,-1.08,-5.11,-5.53,
2.876,20.07,-11.42,1.17,-1.23,-5.09,-5.45,
2.876,20.06,-11.36,1.67,-1.23,-5.09,-5.45,
2.877,20.06,-11.36,1.67,-1.36,-5.03,-5.37,
2.878,19.84,-11.29,2.08,-1.36,-5.03,-5.37,
2.878,19.84,-11.29,2.08,-1.45,-4.92,-5.30,
2.879,19.39,-11.25,2.33,-1.45,-4.92,-5.30,
2.88,19.39,-11.25,2.33,-1.54,-4.77,-5.24,
2.902,19.39,-11.25,2.33,-1.61,-4.60,-5.16,
2.903,18.90,-11.20,2.58,-1.61,-4.60,-5.16,
2.903,18.90,-11.20,2.58,-1.67,-4.46,-5.07,
2.904,18.37,-11.05,2.96,-1.67,-4.46,-5.07,
2.904,18.37,-11.05,2.96,-1.69,-4.33,-4.97,
2.904,18.17,-10.93,3.52,-1.69,-4.33,-4.97,
2.905,18.17,-10.93,3.52,-1.66,-4.24,-4.87,
2.905,17.97,-10.64,3.99,-1.66,-4.24,-4.87,
2.906,17.97,-10.64,3.99,-1.60,-4.17,-4.78,
2.906,17.57,-10.32,4.27,-1.60,-4.17,-4.78,
2.907,17.57,-10.32,4.27,-1.52,-4.10,-4.68,
2.907,17.14,-10.09,4.42,-1.52,-4.10,-4.68,
2.914,17.14,-10.09,4.42,-1.41,-4.04,-4.58,
2.914,16.97,-9.77,4.42,-1.41,-4.04,-4.58,
2.934,16.97,-9.77,4.42,-1.30,-3.98,-4.46,
2.935,16.81,-9.40,4.43,-1.30,-3.98,-4.46,
2.935,16.81,-9.40,4.43,-1.19,-3.91,-4.35,
2.935,16.75,-9.02,4.47,-1.19,-3.91,-4.35,
2.936,16.88,-8.65,4.27,-1.19,-3.91,-4.35,
2.937,16.88,-8.65,4.27,-1.07,-3.82,-4.24,
2.937,16.88,-8.65,4.27,-0.97,-3.72,-4.14,
2.937,17.06,-8.26,4.25,-0.97,-3.72,-4.14,
2.938,17.42,-7.89,4.33,-0.97,-3.72,-4.14,
2.938,17.42,-7.89,4.33,-0.86,-3.61,-4.06,
2.941,17.75,-7.56,4.39,-0.86,-3.61,-4.06,
2.941,17.75,-7.56,4.39,-0.75,-3.49,-4.01,
2.949,18.14,-7.30,4.49,-0.75,-3.49,-4.01,
2.95,18.14,-7.30,4.49,-0.62,-3.39,-3.99,
2.951,18.14,-7.30,4.49,-0.47,-3.31,-3.99,
2.951,18.34,-7.03,4.41,-0.47,-3.31,-3.99,
2.955,18.34,-7.03,4.41,-0.30,-3.28,-4.00,
2.956,18.53,-6.71,4.36,-0.30,-3.28,-4.00,
2.976,18.64,-6.41,4.28,-0.30,-3.28,-4.00,
2.979,18.64,-6.41,4.28,-0.11,-3.31,-4.03,
2.98,18.64,-6.41,4.28,0.10,-3.41,-4.07,
2.98,18.49,-6.16,4.24,0.10,-3.41,-4.07,
2.981,18.49,-6.16,4.24,0.32,-3.55,-4.12,
2.981,17.93,-6.00,4.20,0.32,-3.55,-4.12,
2.982,17.16,-5.84,4.04,0.32,-3.55,-4.12,
2.982,17.16,-5.84,4.04,0.55,-3.70,-4.14,
2.982,16.52,-5.55,3.66,0.55,-3.70,-4.14,
2.983,16.52,-5.55,3.66,0.76,-3.83,-4.13,
2.986,16.52,-5.55,3.66,0.94,-3.94,-4.09,
2.986,16.31,-5.14,2.98,0.94,-3.94,-4.09,
2.989,16.30,-4.71,1.99,0.94,-3.94,-4.09,
2.99,16.30,-4.71,1.99,1.07,-4.01,-4.03,
2.994,16.29,-4.36,0.80,1.07,-4.01,-4.03,
2.995,16.29,-4.36,0.80,1.13,-4.04,-3.99,
2.999,16.29,-4.36,0.80,1.12,-4.03,-3.96,
3.0,16.42,-4.04,-0.55,1.12,-4.03,-3.96,
3.004,16.78,-3.76,-1.82,1.12,-4.03,-3.96,
3.005,16.78,-3.76,-1.82,1.03,-3.99,-3.93,
3.009,16.78,-3.76,-1.82,0.87,-3.92,-3.91,
3.01,17.16,-3.42,-2.97,0.87,-3.92,-3.91,
3.021,17.16,-3.42,-2.97,0.65,-3.86,-3.91,
3.022,17.26,-3.11,-3.78,0.65,-3.86,-3.91,
3.022,17.05,-2.93,-4.18,0.65,-3.86,-3.91,
3.022,17.05,-2.93,-4.18,0.39,-3.80,-3.91,
3.025,17.05,-2.93,-4.18,0.12,-3.77,-3.93,
3.025,16.63,-2.84,-4.16,0.12,-3.77,-3.93,
3.041,16.18,-2.75,-3.77,0.12,-3.77,-3.93,
3.042,16.18,-2.75,-3.77,-0.15,-3.77,-3.93,
3.043,16.18,-2.75,-3.77,-0.40,-3.78,-3.92,
3.044,15.81,-2.80,-2.99,-0.40,-3.78,-3.92,
3.045,15.81,-2.80,-2.99,-0.61,-3.81,-3.90,
3.046,15.41,-2.96,-2.18,-0.61,-3.81,-3.90,
3.046,15.41,-2.96,-2.18,-0.78,-3.85,-3.87,
3.047,14.97,-3.19,-1.36,-0.78,-3.85,-3.87,
3.049,14.97,-3.19,-1.36,-0.91,-3.87,-3.83,
3.05,14.56,-3.48,-0.81,-0.91,-3.87,-3.83,
3.053,14.56,-3.48,-0.81,-1.02,-3.90,-3.79,
3.054,14.31,-3.69,-0.48,-1.02,-3.90,-3.79,
3.057,14.31,-3.69,-0.48,-1.12,-3.91,-3.75,
3.058,13.99,-3.97,-0.37,-1.12,-3.91,-3.75,
3.065,13.99,-3.97,-0.37,-1.22,-3.90,-3.71,
3.066,13.54,-4.14,-0.22,-1.22,-3.90,-3.71,
3.067,13.54,-4.14,-0.22,-1.33,-3.86,-3.67,
3.068,12.91,-4.36,-0.18,-1.33,-3.86,-3.67,
3.072,12.91,-4.36,-0.18,-1.44,-3.80,-3.61,
3.102,12.33,-4.63,-0.21,-1.44,-3.80,-3.61,
3.102,12.33,-4.63,-0.21,-1.56,-3.71,-3.53,
3.103,11.63,-4.89,-0.38,-1.56,-3.71,-3.53,
3.104,10.82,-4.97,-0.54,-1.56,-3.71,-3.53,
3.104,10.82,-4.97,-0.54,-1.70,-3.59,-3.43,
3.105,9.80,-4.94,-0.67,-1.70,-3.59,-3.43,
3.105,9.80,-4.94,-0.67,-1.86,-3.44,-3.30,
3.106,9.80,-4.94,-0.67,-2.02,-3.27,-3.14,
3.106,8.63,-4.66,-0.82,-2.02,-3.27,-3.14,
3.106,7.40,-4.27,-1.24,-2.02,-3.27,-3.14,
3.107,7.40,-4.27,-1.24,-2.20,-3.10,-2.94,
3.107,7.40,-4.27,-1.24,-2.41,-2.93,-2.70,
3.108,6.50,-3.72,-2.12,-2.41,-2.93,-2.70,
3.108,6.21,-3.10,-3.38,-2.41,-2.93,-2.70,
3.108,6.21,-3.10,-3.38,-2.65,-2.78,-2.43,
3.112,6.21,-3.10,-3.38,-2.95,-2.66,-2.14,
3.112,6.57,-2.61,-4.84,-2.95,-2.66,-2.14,
3.12,6.57,-2.61,-4.84,-3.31,-2.57,-1.86,
3.121,7.50,-2.38,-6.51,-3.31,-2.57,-1.86,
3.122,8.70,-2.50,-8.49,-3.31,-2.57,-1.86,
3.122,8.70,-2.50,-8.49,-3.74,-2.49,-1.62,
3.144,9.90,-2.91,-10.23,-3.74,-2.49,-1.62,
3.146,9.90,-2.91,-10.23,-4.26,-2.42,-1.40,
3.146,11.10,-3.53,-11.35,-4.26,-2.42,-1.40,
3.147,11.10,-3.53,-11.35,-4.85,-2.36,-1.23,
3.147,11.91,-4.34,-11.91,-4.85,-2.36,-1.23,
3.148,11.91,-4.34,-11.91,-5.50,-2.33,-1.11,
3.148,11.91,-4.34,-11.91,-6.16,-2.27,-1.03,
3.148,12.18,-5.37,-12.07,-6.16,-2.27,-1.03,
3.149,12.18,-5.37,-12.07,-6.81,-2.18,-0.98,
3.149,12.20,-6.61,-11.80,-6.81,-2.18,-0.98,
3.152,12.20,-6.61,-11.80,-7.44,-2.04,-0.94,
3.153,12.53,-7.91,-10.73,-7.44,-2.04,-0.94,
3.155,12.53,-7.91,-10.73,-8.01,-1.89,-0.91,
3.156,14.07,-9.14,-8.31,-8.01,-1.89,-0.91,
3.16,16.36,-9.83,-4.44,-8.01,-1.89,-0.91,
3.162,16.36,-9.83,-4.44,-8.46,-1.79,-0.94,
3.171,18.08,-10.09,0.24,-8.46,-1.79,-0.94,
3.172,18.08,-10.09,0.24,-8.70,-1.73,-1.09,
3.172,18.58,-10.14,4.99,-8.70,-1.73,-1.09,
3.173,18.58,-10.14,4.99,-8.66,-1.70,-1.36,
3.175,18.21,-10.15,9.43,-8.66,-1.70,-1.36,
3.175,18.21,-10.15,9.43,-8.36,-1.69,-1.70,
3.195,18.21,-10.15,9.43,-7.82,-1.70,-2.05,
3.196,17.28,-10.09,13.16,-7.82,-1.70,-2.05,
3.197,17.28,-10.09,13.16,-7.09,-1.71,-2.38,
3.197,16.06,-10.04,15.98,-7.09,-1.71,-2.38,
3.198,14.91,-9.92,17.79,-7.09,-1.71,-2.38,
3.198,14.91,-9.92,17.79,-6.22,-1.71,-2.68,
3.199,14.91,-9.92,17.79,-5.27,-1.70,-2.96,
3.199,13.91,-9.74,18.38,-5.27,-1.70,-2.96,
3.2,13.91,-9.74,18.38,-4.30,-1.70,-3.23,
3.2,13.02,-9.62,17.82,-4.30,-1.70,-3.23,
3.204,13.02,-9.62,17.82,-3.37,-1.72,-3.48,
3.204,12.02,-9.63,16.31,-3.37,-1.72,-3.48,
3.209,10.82,-9.81,14.24,-3.37,-1.72,-3.48,
3.21,10.82,-9.81,14.24,-2.53,-1.76,-3.72,
3.215,10.82,-9.81,14.24,-1.82,-1.82,-3.91,
3.216,9.62,-10.17,12.04,-1.82,-1.82,-3.91,
3.219,9.62,-10.17,12.04,-1.25,-1.86,-4.05,
3.221,8.51,-10.75,10.00,-1.25,-1.86,-4.05,
3.224,7.44,-11.37,8.34,-1.25,-1.86,-4.05,
3.224,7.44,-11.37,8.34,-0.82,-1.87,-4.15,
3.237,6.09,-11.95,7.00,-0.82,-1.87,-4.15,
3.237,6.09,-11.95,7.00,-0.49,-1.85,-4.21,
3.238,6.09,-11.95,7.00,-0.26,-1.81,-4.21,
3.239,4.54,-12.46,6.00,-0.26,-1.81,-4.21,
3.239,2.94,-12.90,5.27,-0.26,-1.81,-4.21,
3.239,2.94,-12.90,5.27,-0.10,-1.76,-4.16,
3.244,1.43,-13.24,4.85,-0.10,-1.76,-4.16,
3.245,1.43,-13.24,4.85,-0.00,-1.70,-4.04,
3.261,1.43,-13.24,4.85,0.06,-1.65,-3.85,
3.262,-0.07,-13.38,4.63,0.06,-1.65,-3.85,
3.263,-0.07,-13.38,4.63,0.09,-1.60,-3.60,
3.263,-1.36,-13.39,4.72,0.09,-1.60,-3.60,
3.263,-1.36,-13.39,4.72,0.11,-1.54,-3.28,
3.264,-2.43,-13.21,4.96,0.11,-1.54,-3.28,
3.265,-3.31,-12.82,5.41,0.11,-1.54,-3.28,
3.265,-3.31,-12.82,5.41,0.13,-1.48,-2.94,
3.268,-3.31,-12.82,5.41,0.16,-1.41,-2.55,
3.269,-3.87,-12.34,5.96,0.16,-1.41,-2.55,
3.272,-3.89,-11.76,6.45,0.16,-1.41,-2.55,
3.273,-3.89,-11.76,6.45,0.22,-1.30,-2.13,
3.277,-3.69,-11.03,6.57,0.22,-1.30,-2.13,
3.278,-3.69,-11.03,6.57,0.29,-1.18,-1.71,
3.312,-3.19,-10.13,6.44,0.29,-1.18,-1.71,
3.313,-2.26,-8.96,6.28,0.29,-1.18,-1.71,
3.313,-2.26,-8.96,6.28,0.37,-1.01,-1.28,
3.314,-2.26,-8.96,6.28,0.44,-0.83,-0.87,
3.314,-1.04,-7.76,5.95,0.44,-0.83,-0.87,
3.315,-1.04,-7.76,5.95,0.52,-0.62,-0.47,
3.315,-1.04,-7.76,5.95,0.61,-0.41,-0.12,
3.316,0.38,-6.51,5.50,0.61,-0.41,-0.12,
3.316,0.38,-6.51,5.50,0.69,-0.20,0.18,
3.316,2.01,-5.25,4.70,0.69,-0.20,0.18,
3.317,2.01,-5.25,4.70,0.75,0.00,0.42,
3.317,3.90,-4.14,3.69,0.75,0.00,0.42,
3.318,5.89,-3.08,2.59,0.75,0.00,0.42,
3.318,5.89,-3.08,2.59,0.79,0.19,0.59,
3.318,7.95,-1.68,1.55,0.79,0.19,0.59,
3.349,7.95,-1.68,1.55,0.80,0.37,0.68,
3.349,7.95,-1.68,1.55,0.81,0.51,0.69,
3.349,10.30,-0.31,0.59,0.81,0.51,0.69,
3.35,12.83,0.58,-0.29,0.81,0.51,0.69,
3.351,12.83,0.58,-0.29,0.82,0.62,0.59,
3.351,12.83,0.58,-0.29,0.84,0.68,0.37,
3.351,15.13,0.79,-1.09,0.84,0.68,0.37,
3.352,15.13,0.79,-1.09,0.87,0.68,0.04,
3.352,16.74,0.38,-1.65,0.87,0.68,0.04,
3.353,16.74,0.38,-1.65,0.91,0.62,-0.38,
3.353,17.28,-0.44,-2.03,0.91,0.62,-0.38,
3.353,16.83,-1.48,-2.28,0.91,0.62,-0.38,
3.354,16.83,-1.48,-2.28,0.94,0.49,-0.83,
3.354,15.79,-2.60,-2.29,0.94,0.49,-0.83,
3.355,15.79,-2.60,-2.29,0.97,0.32,-1.26,
3.355,14.39,-3.73,-2.17,0.97,0.32,-1.26,
3.356,14.39,-3.73,-2.17,0.97,0.10,-1.66,
3.366,12.45,-4.95,-2.01,0.97,0.10,-1.66,
3.366,12.45,-4.95,-2.01,0.96,-0.14,-2.01,
3.368,12.45,-4.95,-2.01,0.93,-0.40,-2.30,
3.369,10.07,-6.16,-1.87,0.93,-0.40,-2.30,
3.38,7.63,-7.33,-1.82,0.93,-0.40,-2.30,
3.382,5.57,-8.35,-1.81,0.93,-0.40,-2.30,
3.383,5.57,-8.35,-1.81,0.87,-0.66,-2.49,
3.384,5.57,-8.35,-1.81,0.77,-0.92,-2.58,
3.385,5.57,-8.35,-1.81,0.63,-1.16,-2.59,
3.386,3.80,-9.18,-1.81,0.63,-1.16,-2.59,
3.387,3.80,-9.18,-1.81,0.44,-1.35,-2.53,
3.388,2.31,-9.84,-1.75,0.44,-1.35,-2.53,
3.46,2.31,-9.84,-1.75,0.21,-1.47,-2.42,
3.461,1.06,-10.40,-1.58,0.21,-1.47,-2.42,
3.462,1.06,-10.40,-1.58,-0.05,-1.51,-2.26,
3.462,0.10,-10.87,-1.25,-0.05,-1.51,-2.26,
3.463,0.10,-10.87,-1.25,-0.34,-1.47,-2.09,
3.463,-0.73,-11.23,-0.69,-0.34,-1.47,-2.09,
3.464,-0.73,-11.23,-0.69,-0.63,-1.36,-1.88,
3.464,-1.62,-11.40,0.10,-0.63,-1.36,-1.88,
3.465,-1.62,-11.40,0.10,-0.90,-1.21,-1.66,
3.465,-2.50,-11.37,1.06,-0.90,-1.21,-1.66,
3.466,-2.50,-11.37,1.06,-1.13,-1.04,-1.41,
3.466,-3.11,-11.33,2.20,-1.13,-1.04,-1.41,
3.467,-3.14,-11.50,3.55,-1.13,-1.04,-1.41,
3.467,-3.14,-11.50,3.55,-1.30,-0.85,-1.14,
3.468,-3.14,-11.50,3.55,-1.41,-0.68,-0.88,
3.468,-2.79,-11.69,4.97,-1.41,-0.68,-0.88,
3.469,-2.64,-11.56,6.25,-1.41,-0.68,-0.88,
3.469,-2.64,-11.56,6.25,-1.41,-0.52,-0.64,
3.47,-2.79,-11.18,7.27,-1.41,-0.52,-0.64,
3.47,-2.79,-11.18,7.27,-1.33,-0.39,-0.44,
3.471,-2.79,-11.18,7.27,-1.18,-0.30,-0.25,
3.471,-2.98,-10.77,7.65,-1.18,-0.30,-0.25,
3.471,-3.35,-10.56,7.02,-1.18,-0.30,-0.25,
3.472,-3.35,-10.56,7.02,-0.97,-0.22,-0.06,
3.473,-3.35,-10.56,7.02,-0.76,-0.13,0.14,
3.473,-3.07,-10.65,6.31,-0.76,-0.13,0.14,
3.474,-2.51,-10.42,5.93,-0.76,-0.13,0.14,
3.475,-2.51,-10.42,5.93,-0.57,-0.10,0.32,
3.475,-2.51,-10.42,5.93,-0.39,-0.13,0.46,
3.476,-2.30,-9.97,5.68,-0.39,-0.13,0.46,
3.476,-2.47,-9.41,5.48,-0.39,-0.13,0.46,
3.476,-2.47,-9.41,5.48,-0.19,-0.16,0.58,
3.477,-2.47,-9.41,5.48,-0.00,-0.21,0.70,
3.478,-2.52,-8.92,5.26,-0.00,-0.21,0.70,
3.478,-2.12,-8.57,4.88,-0.00,-0.21,0.70,
3.478,-2.12,-8.57,4.88,0.18,-0.27,0.85,
3.479,-2.12,-8.57,4.88,0.34,-0.31,0.99,
3.479,-1.44,-8.23,4.43,0.34,-0.31,0.99,
3.488,-1.44,-8.23,4.43,0.47,-0.31,1.10,
3.489,-0.96,-7.77,4.05,0.47,-0.31,1.10,
3.489,-0.96,-7.77,4.05,0.58,-0.26,1.19,
3.49,-0.68,-7.14,3.62,0.58,-0.26,1.19,
3.498,-0.60,-6.71,3.13,0.58,-0.26,1.19,
3.499,-0.60,-6.71,3.13,0.67,-0.20,1.27,
3.499,-0.60,-6.71,3.13,0.72,-0.14,1.34,
3.499,-0.37,-6.47,2.45,0.72,-0.14,1.34,
3.501,0.05,-6.50,1.90,0.72,-0.14,1.34,
3.502,0.05,-6.50,1.90,0.75,-0.07,1.40,
3.507,0.05,-6.50,1.90,0.75,0.01,1.43,
3.507,0.49,-6.53,1.45,0.75,0.01,1.43,
3.511,0.49,-6.53,1.45,0.74,0.08,1.44,
3.512,0.54,-6.39,1.20,0.74,0.08,1.44,
3.519,0.54,-6.39,1.20,0.73,0.15,1.44,
3.52,0.04,-6.20,1.11,0.73,0.15,1.44,
3.522,0.04,-6.20,1.11,0.71,0.23,1.46,
3.522,-0.72,-6.01,1.12,0.71,0.23,1.46,
3.526,-0.72,-6.01,1.12,0.69,0.30,1.53,
3.526,-1.36,-5.87,1.26,0.69,0.30,1.53,
3.535,-1.64,-5.74,1.38,0.69,0.30,1.53,
3.536,-1.64,-5.74,1.38,0.68,0.37,1.65,
3.536,-1.66,-5.54,1.34,0.68,0.37,1.65,
3.537,-1.66,-5.54,1.34,0.68,0.43,1.80,
3.541,-1.52,-5.34,1.16,0.68,0.43,1.80,
3.541,-1.52,-5.34,1.16,0.68,0.49,1.94,
3.556,-1.28,-5.11,0.94,0.68,0.49,1.94,
3.558,-1.28,-5.11,0.94,0.67,0.55,2.07,
3.558,-1.28,-5.11,0.94,0.64,0.62,2.19,
3.558,-0.81,-4.98,0.74,0.64,0.62,2.19,
3.559,-0.81,-4.98,0.74,0.61,0.68,2.28,
3.559,-0.21,-4.86,0.51,0.61,0.68,2.28,
3.561,-0.21,-4.86,0.51,0.56,0.74,2.34,
3.594,0.32,-4.67,0.31,0.56,0.74,2.34,
3.594,0.32,-4.67,0.31,0.50,0.81,2.36,
3.594,0.67,-4.50,0.13,0.50,0.81,2.36,
3.595,0.67,-4.50,0.13,0.43,0.88,2.35,
3.595,0.95,-4.31,0.01,0.43,0.88,2.35,
3.595,1.28,-4.11,-0.18,0.43,0.88,2.35,
3.596,1.28,-4.11,-0.18,0.38,0.97,2.34,
3.596,1.78,-4.00,-0.36,0.38,0.97,2.34,
3.596,1.78,-4.00,-0.36,0.32,1.04,2.32,
3.596,2.45,-4.01,-0.50,0.32,1.04,2.32,
3.596,2.45,-4.01,-0.50,0.26,1.11,2.28,
3.597,3.11,-4.04,-0.67,0.26,1.11,2.28,
3.597,3.11,-4.04,-0.67,0.20,1.18,2.19,
3.597,3.80,-3.83,-0.96,0.20,1.18,2.19,
3.597,3.80,-3.83,-0.96,0.15,1.27,2.07,
3.611,4.38,-3.44,-1.48,0.15,1.27,2.07,
3.615,4.38,-3.44,-1.48,0.10,1.35,1.94,
3.615,4.38,-3.44,-1.48,0.04,1.43,1.80,
3.615,4.83,-3.22,-1.98,0.04,1.43,1.80,
3.617,5.33,-3.29,-2.41,0.04,1.43,1.80,
3.617,5.33,-3.29,-2.41,-0.03,1.50,1.63,
3.618,5.69,-3.41,-2.76,-0.03,1.50,1.63,
3.618,5.69,-3.41,-2.76,-0.10,1.53,1.43,
3.619,5.69,-3.41,-2.76,-0.15,1.54,1.23,
3.619,5.52,-3.34,-3.18,-0.15,1.54,1.23,
3.624,5.07,-3.12,-3.79,-0.15,1.54,1.23,
3.624,5.07,-3.12,-3.79,-0.21,1.50,1.04,
3.633,5.07,-3.12,-3.79,-0.29,1.43,0.88,
3.634,4.40,-2.95,-4.22,-0.29,1.43,0.88,
3.634,4.40,-2.95,-4.22,-0.38,1.30,0.74,
3.635,3.53,-2.82,-4.55,-0.38,1.30,0.74,
3.638,2.61,-2.71,-4.79,-0.38,1.30,0.74,
3.638,2.61,-2.71,-4.79,-0.48,1.14,0.66,
3.643,2.61,-2.71,-4.79,-0.59,0.96,0.62,
3.643,1.85,-2.73,-5.01,-0.59,0.96,0.62,
3.648,1.85,-2.73,-5.01,-0.72,0.76,0.62,
3.649,1.33,-2.89,-5.04,-0.72,0.76,0.62,
3.652,0.96,-3.12,-4.67,-0.72,0.76,0.62,
3.653,0.96,-3.12,-4.67,-0.86,0.55,0.65,
3.657,0.55,-3.35,-4.00,-0.86,0.55,0.65,
3.658,0.55,-3.35,-4.00,-0.98,0.35,0.68,
3.669,-0.25,-3.43,-3.06,-0.98,0.35,0.68,
3.67,-0.25,-3.43,-3.06,-1.06,0.14,0.72,
3.67,-0.25,-3.43,-3.06,-1.09,-0.06,0.81,
3.67,-1.15,-3.39,-1.92,-1.09,-0.06,0.81,
3.672,-1.15,-3.39,-1.92,-1.06,-0.27,0.94,
3.672,-1.90,-3.39,-0.98,-1.06,-0.27,0.94,
3.677,-1.90,-3.39,-0.98,-0.97,-0.51,1.11,
3.678,-2.36,-3.40,-0.07,-0.97,-0.51,1.11,
3.708,-2.32,-3.36,0.71,-0.97,-0.51,1.11,
3.709,-1.88,-3.32,1.18,-0.97,-0.51,1.11,
3.709,-1.88,-3.32,1.18,-0.83,-0.78,1.30,
3.71,-1.88,-3.32,1.18,-0.64,-1.05,1.50,
3.71,-1.88,-3.32,1.18,-0.43,-1.29,1.68,
3.71,-1.57,-3.17,1.16,-0.43,-1.29,1.68,
3.711,-1.22,-2.84,0.78,-0.43,-1.29,1.68,
3.712,-1.22,-2.84,0.78,-0.22,-1.48,1.84,
3.713,-1.22,-2.84,0.78,-0.05,-1.62,2.00,
3.714,-0.58,-2.52,0.24,-0.05,-1.62,2.00,
3.714,-0.58,-2.52,0.24,0.06,-1.72,2.13,
3.715,0.35,-2.60,-0.23,0.06,-1.72,2.13,
3.715,0.35,-2.60,-0.23,0.13,-1.74,2.18,
3.715,1.67,-3.64,-0.48,0.13,-1.74,2.18,
3.719,4.26,-4.82,0.62,0.13,-1.74,2.18,
3.72,4.26,-4.82,0.62,0.18,-1.69,2.18,
3.725,4.26,-4.82,0.62,0.26,-1.61,2.12,
3.725,6.30,-5.01,2.20,0.26,-1.61,2.12,
3.727,7.09,-7.44,5.24,0.26,-1.61,2.12,
3.727,7.09,-7.44,5.24,0.39,-1.54,1.98,
3.733,7.09,-7.44,5.24,0.67,-1.48,1.69,
3.734,5.51,-9.45,7.93,0.67,-1.48,1.69,
3.736,5.51,-9.45,7.93,1.15,-1.49,1.47,
3.737,4.71,-8.62,10.97,1.15,-1.49,1.47,
3.74,4.71,-8.62,10.97,1.73,-1.64,1.48,
3.741,4.32,-7.36,12.39,1.73,-1.64,1.48,
3.747,3.52,-7.00,10.91,1.73,-1.64,1.48,
3.748,3.52,-7.00,10.91,2.37,-1.66,1.51,
3.75,3.52,-7.00,10.91,2.94,-1.42,1.49,
3.751,2.26,-5.61,5.32,2.94,-1.42,1.49,
3.755,2.26,-5.61,5.32,3.21,-1.05,1.55,
3.756,0.81,-4.06,-0.65,3.21,-1.05,1.55,
3.76,1.42,-4.22,-3.55,3.21,-1.05,1.55,
3.76,1.42,-4.22,-3.55,3.14,-0.70,1.68,
3.764,1.42,-4.22,-3.55,2.90,-0.40,1.79,
3.765,3.59,-4.68,-3.07,2.90,-0.40,1.79,
3.802,3.59,-4.68,-3.07,2.70,-0.22,1.82,
3.803,4.81,-4.78,-1.23,2.70,-0.22,1.82,
3.803,5.55,-4.97,0.57,2.70,-0.22,1.82,
3.803,5.55,-4.97,0.57,2.64,-0.11,1.82,
3.804,6.26,-4.73,0.57,2.64,-0.11,1.82,
3.804,6.26,-4.73,0.57,2.69,-0.07,1.85,
3.805,6.26,-4.73,0.57,2.77,-0.04,1.88,
3.805,6.58,-4.28,-1.36,2.77,-0.04,1.88,
3.805,6.58,-4.28,-1.36,2.77,0.01,1.91,
3.806,6.67,-3.84,-4.02,2.77,0.01,1.91,
3.806,6.72,-3.24,-6.74,2.77,0.01,1.91,
3.806,6.72,-3.24,-6.74,2.64,0.01,1.93,
3.807,6.67,-2.72,-9.14,2.64,0.01,1.93,
3.807,6.67,-2.72,-9.14,2.36,-0.03,1.95,
3.808,6.27,-2.54,-11.04,2.36,-0.03,1.95,
3.836,6.27,-2.54,-11.04,1.94,-0.10,1.99,
3.836,6.27,-2.54,-11.04,1.41,-0.18,2.05,
3.837,6.38,-2.32,-12.15,1.41,-0.18,2.05,
3.837,6.38,-2.32,-12.15,0.81,-0.21,2.13,
3.838,6.71,-2.92,-12.56,0.81,-0.21,2.13,
3.838,6.60,-3.35,-11.99,0.81,-0.21,2.13,
3.839,6.60,-3.35,-11.99,0.16,-0.21,2.20,
3.839,7.96,-4.28,-10.77,0.16,-0.21,2.20,
3.839,7.96,-4.28,-10.77,-0.46,-0.17,2.26,
3.84,9.22,-5.78,-8.47,-0.46,-0.17,2.26,
3.841,9.22,-5.78,-8.47,-1.03,-0.17,2.28,
3.841,9.03,-6.48,-5.34,-1.03,-0.17,2.28,
3.841,9.03,-6.48,-5.34,-1.47,-0.21,2.23,
3.842,9.03,-6.48,-5.34,-1.71,-0.32,2.15,
3.842,8.53,-6.76,-1.89,-1.71,-0.32,2.15,
3.851,8.53,-6.76,-1.89,-1.74,-0.53,2.09,
3.852,8.24,-7.21,1.44,-1.74,-0.53,2.09,
3.852,7.92,-7.72,4.08,-1.74,-0.53,2.09,
3.853,7.92,-7.72,4.08,-1.56,-0.84,2.04,
3.853,7.92,-7.72,4.08,-1.20,-1.20,1.98,
3.86,7.92,-7.72,4.08,-0.73,-1.55,1.94,
3.862,7.30,-8.00,6.01,-0.73,-1.55,1.94,
3.862,6.66,-8.08,7.22,-0.73,-1.55,1.94,
3.863,6.55,-8.21,7.63,-0.73,-1.55,1.94,
3.863,6.55,-8.21,7.63,-0.20,-1.86,1.93,
3.896,7.13,-8.44,7.24,-0.20,-1.86,1.93,
3.897,7.13,-8.44,7.24,0.32,-2.07,1.93,
3.897,7.13,-8.44,7.24,0.81,-2.14,1.90,
3.897,8.08,-8.73,6.59,0.81,-2.14,1.90,
3.898,8.08,-8.73,6.59,1.24,-2.07,1.82,
3.898,8.85,-9.04,6.00,1.24,-2.07,1.82,
3.899,9.67,-9.29,5.33,1.24,-2.07,1.82,
3.899,9.67,-9.29,5.33,1.63,-1.89,1.69,
3.899,10.51,-9.41,4.03,1.63,-1.89,1.69,
3.9,10.51,-9.41,4.03,1.99,-1.61,1.55,
3.9,11.24,-9.42,2.14,1.99,-1.61,1.55,
3.9,11.24,-9.42,2.14,2.30,-1.29,1.41,
3.901,11.24,-9.42,2.14,2.56,-0.95,1.26,
3.901,12.30,-9.26,0.11,2.56,-0.95,1.26,
3.901,12.30,-9.26,0.11,2.76,-0.67,1.10,
3.902,13.07,-8.81,-2.17,2.76,-0.67,1.10,
3.906,13.07,-8.81,-2.17,2.91,-0.49,0.90,
3.907,13.23,-8.22,-4.01,2.91,-0.49,0.90,
3.911,13.23,-8.22,-4.01,3.03,-0.41,0.72,
3.912,13.03,-7.46,-5.63,3.03,-0.41,0.72,
3.92,12.27,-6.76,-6.74,3.03,-0.41,0.72,
3.921,12.27,-6.76,-6.74,3.11,-0.42,0.56,
3.921,11.07,-6.15,-7.37,3.11,-0.42,0.56,
3.921,11.07,-6.15,-7.37,3.17,-0.50,0.43,
3.926,9.65,-5.64,-7.70,3.17,-0.50,0.43,
3.926,9.65,-5.64,-7.70,3.21,-0.59,0.36,
3.944,9.65,-5.64,-7.70,3.23,-0.68,0.34,
3.945,8.31,-5.35,-7.57,3.23,-0.68,0.34,
3.945,8.31,-5.35,-7.57,3.24,-0.70,0.38,
3.946,7.58,-5.29,-7.42,3.24,-0.70,0.38,
3.946,7.58,-5.29,-7.42,3.23,-0.62,0.46,
3.946,7.62,-5.16,-7.80,3.23,-0.62,0.46,
3.947,7.62,-5.16,-7.80,3.19,-0.42,0.56,
3.947,7.88,-4.94,-8.99,3.19,-0.42,0.56,
3.967,7.88,-4.94,-8.99,3.08,-0.16,0.65,
3.968,7.61,-4.69,-10.04,3.08,-0.16,0.65,
3.968,7.61,-4.69,-10.04,2.91,0.13,0.74,
3.969,7.05,-4.53,-10.36,2.91,0.13,0.74,
3.969,6.74,-4.28,-10.15,2.91,0.13,0.74,
3.97,6.74,-4.28,-10.15,2.71,0.43,0.86,
3.971,6.60,-4.21,-9.87,2.71,0.43,0.86,
3.971,6.60,-4.21,-9.87,2.51,0.74,1.01,
3.972,6.25,-4.14,-9.40,2.51,0.74,1.01,
3.972,6.25,-4.14,-9.40,2.34,1.03,1.19,
3.976,6.25,-4.14,-9.40,2.21,1.25,1.37,
3.976,5.97,-4.03,-8.59,2.21,1.25,1.37,
3.982,5.97,-4.03,-8.59,2.13,1.40,1.57,
3.983,6.02,-3.82,-7.91,2.13,1.40,1.57,
3.985,6.02,-3.82,-7.91,2.13,1.47,1.78,
3.986,6.47,-3.64,-7.57,2.13,1.47,1.78,
3.989,7.30,-3.54,-7.58,2.13,1.47,1.78,
3.99,7.30,-3.54,-7.58,2.18,1.47,1.98,
3.995,7.30,-3.54,-7.58,2.26,1.41,2.16,
3.995,8.57,-3.35,-8.30,2.26,1.41,2.16,
4.001,8.57,-3.35,-8.30,2.35,1.33,2.30,
4.001,9.94,-3.24,-9.44,2.35,1.33,2.30,
4.005,9.94,-3.24,-9.44,2.41,1.25,2.39,
4.005,11.13,-3.34,-10.43,2.41,1.25,2.39,
4.008,11.13,-3.34,-10.43,2.43,1.16,2.43,
4.01,11.78,-3.59,-10.66,2.43,1.16,2.43,
4.014,11.78,-3.59,-10.66,2.44,1.09,2.43,
4.015,11.77,-3.89,-10.03,2.44,1.09,2.43,
4.025,11.06,-4.29,-8.74,2.44,1.09,2.43,
4.025,11.06,-4.29,-8.74,2.46,1.04,2.42,
4.026,10.49,-4.86,-7.42,2.46,1.04,2.42,
4.026,10.49,-4.86,-7.42,2.54,1.00,2.45,
4.028,10.49,-4.86,-7.42,2.67,1.00,2.52,
4.046,10.49,-4.86,-7.42,2.85,1.04,2.62,
4.047,10.25,-5.40,-6.42,2.85,1.04,2.62,
4.048,10.31,-5.95,-5.92,2.85,1.04,2.62,
4.048,10.31,-5.95,-5.92,3.04,1.09,2.73,
4.048,10.72,-6.33,-5.85,3.04,1.09,2.73,
4.049,10.72,-6.33,-5.85,3.24,1.15,2.84,
4.049,11.72,-6.55,-6.09,3.24,1.15,2.84,
4.049,12.97,-6.74,-6.53,3.24,1.15,2.84,
4.077,12.97,-6.74,-6.53,3.44,1.23,2.93,
4.077,14.10,-6.85,-7.12,3.44,1.23,2.93,
4.077,14.10,-6.85,-7.12,3.63,1.33,3.00,
4.078,15.03,-6.88,-7.83,3.63,1.33,3.00,
4.078,15.03,-6.88,-7.83,3.79,1.45,3.03,
4.078,15.70,-6.98,-8.24,3.79,1.45,3.03,
4.079,15.70,-6.98,-8.24,3.93,1.59,3.04,
4.079,15.70,-6.98,-8.24,4.05,1.74,3.04,
4.079,16.11,-7.14,-8.28,4.05,1.74,3.04,
4.079,16.11,-7.14,-8.28,4.16,1.90,3.04,
4.08,16.48,-7.37,-8.01,4.16,1.90,3.04,
4.08,16.48,-7.37,-8.01,4.30,2.05,3.05,
4.08,16.81,-7.47,-7.82,4.30,2.05,3.05,
4.084,17.20,-7.44,-8.01,4.30,2.05,3.05,
4.085,17.20,-7.44,-8.01,4.44,2.20,3.06,
4.086,17.20,-7.44,-8.01,4.60,2.35,3.07,
4.087,17.78,-7.38,-8.50,4.60,2.35,3.07,
4.092,17.78,-7.38,-8.50,4.75,2.47,3.08,
4.092,18.75,-7.29,-9.25,4.75,2.47,3.08,
4.096,18.75,-7.29,-9.25,4.89,2.58,3.07,
4.098,19.98,-7.17,-10.29,4.89,2.58,3.07,
4.106,19.98,-7.17,-10.29,5.01,2.66,3.02,
4.107,20.90,-7.04,-11.34,5.01,2.66,3.02,
4.107,20.90,-7.04,-11.34,5.09,2.68,2.95,
4.108,21.18,-6.94,-12.01,5.09,2.68,2.95,
4.116,21.18,-6.94,-12.01,5.15,2.68,2.85,
4.117,20.91,-6.95,-12.23,5.15,2.68,2.85,
4.117,20.35,-7.10,-12.00,5.15,2.68,2.85,
4.117,20.35,-7.10,-12.00,5.20,2.67,2.78,
4.135,19.75,-7.52,-11.63,5.20,2.67,2.78,
4.136,19.75,-7.52,-11.63,5.25,2.66,2.74,
4.137,19.19,-8.02,-11.29,5.25,2.66,2.74,
4.137,19.19,-8.02,-11.29,5.32,2.65,2.73,
4.138,19.19,-8.02,-11.29,5.39,2.63,2.78,
4.138,18.58,-8.48,-11.00,5.39,2.63,2.78,
4.138,18.58,-8.48,-11.00,5.44,2.66,2.85,
4.139,18.31,-8.84,-10.82,5.44,2.66,2.85,
4.141,18.66,-9.15,-11.04,5.44,2.66,2.85,
4.142,18.66,-9.15,-11.04,5.47,2.74,2.95,
4.145,18.66,-9.15,-11.04,5.49,2.87,3.05,
4.145,19.06,-9.53,-11.45,5.49,2.87,3.05,
4.15,19.37,-9.83,-11.91,5.49,2.87,3.05,
4.151,19.37,-9.83,-11.91,5.46,3.02,3.17,
4.155,19.37,-9.83,-11.91,5.39,3.18,3.29,
4.155,19.76,-10.05,-12.19,5.39,3.18,3.29,
4.159,19.76,-10.05,-12.19,5.30,3.34,3.42,
4.16,20.65,-10.18,-12.18,5.30,3.34,3.42,
4.166,21.77,-10.25,-12.17,5.30,3.34,3.42,
4.17,21.77,-10.25,-12.17,5.20,3.51,3.55,
4.17,22.74,-10.25,-11.82,5.20,3.51,3.55,
4.171,22.74,-10.25,-11.82,5.13,3.64,3.65,
4.176,22.74,-10.25,-11.82,5.08,3.74,3.73,
4.176,23.25,-10.20,-11.28,5.08,3.74,3.73,
4.179,23.42,-10.21,-10.44,5.08,3.74,3.73,
4.181,23.42,-10.21,-10.44,5.06,3.83,3.79,
4.188,23.53,-10.37,-9.42,5.06,3.83,3.79,
4.189,23.53,-10.37,-9.42,5.08,3.91,3.86,
4.19,23.53,-10.37,-9.42,5.13,4.00,3.95,
4.19,23.65,-10.64,-8.37,5.13,4.00,3.95,
4.194,23.65,-10.64,-8.37,5.24,4.10,4.04,
4.194,23.66,-11.01,-7.58,5.24,4.10,4.04,
4.199,23.77,-11.27,-7.20,5.24,4.10,4.04,
4.2,23.77,-11.27,-7.20,5.37,4.21,4.15,
4.204,24.33,-11.21,-7.69,5.37,4.21,4.15,
4.205,24.33,-11.21,-7.69,5.52,4.35,4.28,
4.209,25.27,-10.79,-8.56,5.52,4.35,4.28,
4.209,25.27,-10.79,-8.56,5.65,4.48,4.42,
4.213,25.27,-10.79,-8.56,5.74,4.61,4.52,
4.214,26.45,-10.14,-9.77,5.74,4.61,4.52,
4.221,27.56,-9.38,-11.36,5.74,4.61,4.52,
4.222,27.56,-9.38,-11.36,5.80,4.73,4.59,
4.228,28.25,-8.60,-12.87,5.80,4.73,4.59,
4.229,28.25,-8.60,-12.87,5.80,4.86,4.62,
4.229,28.25,-8.60,-12.87,5.74,4.97,4.61,
4.229,28.35,-7.84,-14.02,5.74,4.97,4.61,
4.251,28.07,-7.17,-14.79,5.74,4.97,4.61,
4.252,28.07,-7.17,-14.79,5.65,5.08,4.60,
4.252,28.07,-7.17,-14.79,5.52,5.17,4.60,
4.252,27.87,-6.55,-15.27,5.52,5.17,4.60,
4.253,27.68,-6.08,-15.47,5.52,5.17,4.60,
4.253,27.68,-6.08,-15.47,5.39,5.30,4.62,
4.253,27.68,-6.08,-15.47,5.25,5.42,4.63,
4.254,27.57,-5.44,-15.43,5.25,5.42,4.63,
4.254,27.57,-5.44,-15.43,5.14,5.53,4.63,
4.254,27.53,-4.81,-15.29,5.14,5.53,4.63,
4.292,27.53,-4.81,-15.29,5.04,5.61,4.62,
4.293,27.47,-4.43,-15.11,5.04,5.61,4.62,
4.294,27.05,-4.21,-15.17,5.04,5.61,4.62,
4.295,27.05,-4.21,-15.17,4.96,5.67,4.60,
4.295,26.71,-4.03,-15.68,4.96,5.67,4.60,
4.296,26.71,-4.03,-15.68,4.87,5.72,4.60,
4.296,26.71,-4.03,-15.68,4.75,5.75,4.61,
4.297,26.38,-3.91,-16.14,4.75,5.75,4.61,
4.298,26.38,-3.91,-16.14,4.58,5.75,4.64,
4.3,25.87,-3.76,-16.49,4.58,5.75,4.64,
4.3,25.87,-3.76,-16.49,4.38,5.73,4.67,
4.301,25.28,-3.51,-16.40,4.38,5.73,4.67,
4.301,25.28,-3.51,-16.40,4.17,5.72,4.72,
4.302,24.89,-3.31,-16.33,4.17,5.72,4.72,
4.303,24.56,-3.09,-15.97,4.17,5.72,4.72,
4.335,24.56,-3.09,-15.97,3.92,5.74,4.78,
4.335,24.56,-3.09,-15.97,3.66,5.80,4.86,
4.336,24.41,-2.67,-15.57,3.66,5.80,4.86,
4.336,24.44,-2.32,-15.81,3.66,5.80,4.86,
4.337,24.44,-2.32,-15.81,3.38,5.89,4.95,
4.338,24.44,-2.32,-15.81,3.07,6.03,5.04,
4.338,24.39,-2.10,-16.16,3.07,6.03,5.04,
4.339,24.39,-2.10,-16.16,2.73,6.21,5.12,
4.339,24.27,-1.85,-16.37,2.73,6.21,5.12,
4.34,24.29,-1.31,-16.42,2.73,6.21,5.12,
4.34,24.29,-1.31,-16.42,2.37,6.36,5.20,
4.341,24.29,-1.31,-16.42,2.02,6.46,5.30,
4.343,24.80,-0.69,-16.48,2.02,6.46,5.30,
4.35,25.61,-0.03,-16.56,2.02,6.46,5.30,
4.351,25.61,-0.03,-16.56,1.68,6.48,5.39,
4.352,26.46,0.57,-16.72,1.68,6.48,5.39,
4.352,26.46,0.57,-16.72,1.38,6.43,5.44,
4.352,26.46,0.57,-16.72,1.09,6.31,5.43,
4.353,26.92,1.09,-17.12,1.09,6.31,5.43,
4.353,26.92,1.09,-17.12,0.82,6.13,5.38,
4.354,26.96,1.86,-17.38,0.82,6.13,5.38,
4.354,26.96,1.86,-17.38,0.55,5.95,5.32,
4.355,27.13,2.69,-17.51,0.55,5.95,5.32,
4.355,27.15,3.28,-17.47,0.55,5.95,5.32,
4.356,27.15,3.28,-17.47,0.27,5.78,5.24,
4.356,27.15,3.28,-17.47,-0.01,5.60,5.16,
4.357,26.82,3.51,-17.06,-0.01,5.60,5.16,
4.366,26.46,3.54,-16.10,-0.01,5.60,5.16,
4.367,26.46,3.54,-16.10,-0.29,5.44,5.07,
4.368,26.46,3.54,-16.10,-0.56,5.31,5.00,
4.368,26.10,3.71,-14.69,-0.56,5.31,5.00,
4.37,25.56,4.10,-13.17,-0.56,5.31,5.00,
4.371,25.56,4.10,-13.17,-0.79,5.20,4.92,
4.375,24.88,4.49,-11.90,-0.79,5.20,4.92,
4.376,24.88,4.49,-11.90,-0.97,5.12,4.83,
4.379,23.93,4.45,-11.18,-0.97,5.12,4.83,
4.38,23.93,4.45,-11.18,-1.11,5.05,4.73,
4.384,22.59,4.05,-10.93,-1.11,5.05,4.73,
4.385,22.59,4.05,-10.93,-1.23,4.98,4.64,
4.389,21.12,3.43,-10.67,-1.23,4.98,4.64,
4.39,21.12,3.43,-10.67,-1.37,4.92,4.60,
4.394,19.85,2.77,-10.06,-1.37,4.92,4.60,
4.395,19.85,2.77,-10.06,-1.51,4.87,4.57,
4.406,18.77,2.33,-9.49,-1.51,4.87,4.57,
4.407,18.77,2.33,-9.49,-1.63,4.80,4.57,
4.407,17.71,2.23,-8.66,-1.63,4.80,4.57,
4.407,17.71,2.23,-8.66,-1.72,4.66,4.59,
4.417,17.20,2.21,-7.30,-1.72,4.66,4.59,
4.418,17.20,2.21,-7.30,-1.74,4.48,4.64,
4.418,17.20,2.21,-7.30,-1.66,4.24,4.68,
4.418,16.92,2.37,-5.81,-1.66,4.24,4.68,
4.419,16.92,2.37,-5.81,-1.46,3.91,4.70,
4.419,16.54,2.75,-4.63,-1.46,3.91,4.70,
4.437,16.54,2.75,-4.63,-1.15,3.50,4.73,
4.438,16.72,3.07,-3.65,-1.15,3.50,4.73,
4.438,17.87,3.38,-2.95,-1.15,3.50,4.73,
4.438,17.87,3.38,-2.95,-0.76,3.07,4.74,
4.439,19.40,3.78,-2.71,-0.76,3.07,4.74,
4.439,19.40,3.78,-2.71,-0.31,2.65,4.69,
4.44,19.40,3.78,-2.71,0.16,2.26,4.55,
4.441,20.15,4.25,-2.57,0.16,2.26,4.55,
4.443,19.75,4.80,-2.32,0.16,2.26,4.55,
4.444,19.75,4.80,-2.32,0.64,1.94,4.34,
4.448,19.75,4.80,-2.32,1.14,1.73,4.13,
4.449,18.52,5.43,-2.36,1.14,1.73,4.13,
4.452,18.52,5.43,-2.36,1.60,1.62,3.95,
4.453,17.10,5.84,-3.14,1.60,1.62,3.95,
4.458,15.87,6.12,-4.68,1.60,1.62,3.95,
4.458,15.87,6.12,-4.68,1.99,1.60,3.84,
4.463,14.94,6.40,-6.63,1.99,1.60,3.84,
4.463,14.94,6.40,-6.63,2.28,1.67,3.77,
4.471,14.23,6.54,-8.84,2.28,1.67,3.77,
4.472,14.23,6.54,-8.84,2.44,1.81,3.74,
4.473,13.63,6.72,-10.63,2.44,1.81,3.74,
4.473,13.63,6.72,-10.63,2.47,1.98,3.74,
4.478,13.63,6.72,-10.63,2.39,2.16,3.78,
4.479,13.19,6.94,-11.80,2.39,2.16,3.78,
4.495,13.19,6.94,-11.80,2.24,2.35,3.83,
4.496,13.19,6.94,-11.80,2.05,2.52,3.91,
4.496,12.90,7.20,-12.58,2.05,2.52,3.91,
4.496,12.85,7.38,-13.25,2.05,2.52,3.91,
4.497,12.85,7.38,-13.25,1.83,2.66,3.99,
4.5,13.40,7.66,-13.76,1.83,2.66,3.99,
4.5,14.67,8.12,-13.90,1.83,2.66,3.99,
4.501,14.67,8.12,-13.90,1.57,2.75,4.07,
4.502,16.04,8.74,-13.43,1.57,2.75,4.07,
4.502,16.04,8.74,-13.43,1.30,2.76,4.09,
4.506,17.00,9.58,-12.29,1.30,2.76,4.09,
4.507,17.00,9.58,-12.29,1.05,2.69,4.04,
4.511,17.00,9.58,-12.29,0.88,2.57,3.90,
4.512,17.53,10.28,-10.51,0.88,2.57,3.90,
4.517,17.53,10.28,-10.51,0.85,2.41,3.72,
4.518,17.46,10.86,-8.49,0.85,2.41,3.72,
4.521,16.63,11.45,-6.81,0.85,2.41,3.72,
4.522,16.63,11.45,-6.81,0.95,2.20,3.53,
4.526,16.63,11.45,-6.81,1.19,1.96,3.37,
4.527,15.69,11.88,-5.79,1.19,1.96,3.37,
4.531,15.69,11.88,-5.79,1.52,1.67,3.24,
4.532,15.24,12.23,-5.58,1.52,1.67,3.24,
4.536,15.24,12.23,-5.58,1.88,1.36,3.10,
4.563,14.84,12.35,-6.31,1.88,1.36,3.10,
4.564,14.08,12.22,-7.57,1.88,1.36,3.10,
4.564,14.08,12.22,-7.57,2.21,1.04,2.96,
4.565,13.30,12.04,-9.11,2.21,1.04,2.96,
4.565,13.30,12.04,-9.11,2.45,0.78,2.83,
4.565,12.47,11.97,-10.75,2.45,0.78,2.83,
4.566,12.47,11.97,-10.75,2.58,0.63,2.72,
4.566,11.78,11.96,-12.32,2.58,0.63,2.72,
4.566,11.78,11.96,-12.32,2.56,0.62,2.65,
4.567,11.78,11.96,-12.32,2.39,0.75,2.60,
4.567,11.49,12.05,-13.23,2.39,0.75,2.60,
4.567,11.49,12.05,-13.23,2.10,0.98,2.56,
4.568,11.39,12.31,-13.61,2.10,0.98,2.56,
4.571,11.53,12.40,-13.63,2.10,0.98,2.56,
4.571,11.53,12.40,-13.63,1.73,1.27,2.53,
4.578,12.01,12.38,-13.23,1.73,1.27,2.53,
4.578,12.01,12.38,-13.23,1.31,1.57,2.51,
4.58,12.01,12.38,-13.23,0.87,1.83,2.47,
4.58,12.68,12.41,-12.51,0.87,1.83,2.47,
4.6,12.68,12.41,-12.51,0.46,2.01,2.39,
4.601,13.40,12.68,-11.50,0.46,2.01,2.39,
4.601,13.40,12.68,-11.50,0.11,2.08,2.26,
4.601,13.88,12.89,-10.39,0.11,2.08,2.26,
4.602,13.88,12.89,-10.39,-0.16,2.02,2.09,
4.602,13.99,12.89,-9.15,-0.16,2.02,2.09,
4.602,13.99,12.89,-9.15,-0.33,1.86,1.91,
4.603,13.66,12.63,-8.26,-0.33,1.86,1.91,
4.605,13.66,12.63,-8.26,-0.45,1.65,1.71,
4.605,12.77,12.18,-7.85,-0.45,1.65,1.71,
4.609,12.77,12.18,-7.85,-0.53,1.43,1.51,
4.609,11.39,11.50,-7.55,-0.53,1.43,1.51,
4.613,9.49,10.75,-7.04,-0.53,1.43,1.51,
4.614,9.49,10.75,-7.04,-0.58,1.27,1.34,
4.622,9.49,10.75,-7.04,-0.61,1.17,1.22,
4.623,7.45,10.02,-6.03,-0.61,1.17,1.22,
4.624,7.45,10.02,-6.03,-0.60,1.05,1.17,
4.624,6.43,9.84,-4.70,-0.60,1.05,1.17,
4.628,5.07,8.48,-3.24,-0.60,1.05,1.17,
4.629,5.07,8.48,-3.24,-0.53,0.95,1.17,
4.648,5.07,8.48,-3.24,-0.42,0.86,1.23,
4.649,4.89,7.38,-3.04,-0.42,0.86,1.23,
4.65,4.96,6.85,-2.26,-0.42,0.86,1.23,
4.651,4.96,6.85,-2.26,-0.31,0.86,1.27,
4.651,4.58,6.87,-0.76,-0.31,0.86,1.27,
4.652,4.58,6.87,-0.76,-0.20,0.92,1.31,
4.652,4.53,6.23,0.54,-0.20,0.92,1.31,
4.653,4.53,6.23,0.54,-0.09,0.98,1.36,
4.653,4.70,6.63,3.70,-0.09,0.98,1.36,
4.653,4.70,6.63,3.70,0.10,0.98,1.44,
4.658,4.70,6.63,3.70,0.51,0.66,1.57,
4.658,5.35,4.96,1.88,0.51,0.66,1.57,
4.663,8.94,7.10,-0.39,0.51,0.66,1.57,
4.663,8.94,7.10,-0.39,0.83,0.47,1.57,
4.667,8.94,7.10,-0.39,0.98,0.14,1.44,
4.668,29.34,10.38,-17.76,0.98,0.14,1.44,
4.673,29.34,10.38,-17.76,0.92,-1.96,0.83,
4.673,30.00,29.05,-37.81,0.92,-1.96,0.83,
4.677,30.00,29.05,-37.81,0.50,-4.87,-1.13,
4.678,29.97,35.33,-35.96,0.50,-4.87,-1.13,
4.691,6.76,17.27,-10.79,0.50,-4.87,-1.13,
4.692,6.76,17.27,-10.79,-0.28,-4.99,-3.28,
4.693,-9.96,11.10,-8.21,-0.28,-4.99,-3.28,
4.693,-9.96,11.10,-8.21,-0.90,-2.71,-3.41,
4.694,-9.96,11.10,-8.21,-1.34,-0.85,-2.56,
4.694,-20.81,10.58,-0.91,-1.34,-0.85,-2.56,
4.697,-20.81,10.58,-0.91,-1.33,-0.22,-1.65,
4.698,-26.76,5.52,4.01,-1.33,-0.22,-1.65,
4.721,-26.76,5.52,4.01,-0.80,-0.21,-0.49,
4.722,-17.08,4.73,1.90,-0.80,-0.21,-0.49,
4.723,-3.77,8.90,3.18,-0.80,-0.21,-0.49,
4.724,-3.77,8.90,3.18,-0.22,-0.14,0.41,
4.724,-3.77,8.90,3.18,0.27,0.11,0.76,
4.725,5.54,9.30,3.81,0.27,0.11,0.76,
4.725,5.54,9.30,3.81,0.72,0.44,0.72,
4.725,5.36,6.73,2.40,0.72,0.44,0.72,
4.726,1.67,3.34,0.87,0.72,0.44,0.72,
4.726,1.67,3.34,0.87,1.10,0.66,0.64,
4.726,-0.81,0.26,-1.50,1.10,0.66,0.64,
4.727,-0.81,0.26,-1.50,1.37,0.71,0.68,
4.731,-2.22,-1.31,-4.19,1.37,0.71,0.68,
4.732,-2.22,-1.31,-4.19,1.47,0.71,0.83,
4.743,-3.50,-1.95,-5.07,1.47,0.71,0.83,
4.744,-3.50,-1.95,-5.07,1.35,0.72,1.05,
4.745,0.71,-0.91,-4.00,1.35,0.72,1.05,
4.745,0.71,-0.91,-4.00,1.10,0.74,1.31,
4.792,0.71,-0.91,-4.00,0.88,0.70,1.35,
4.792,0.67,-0.57,-4.03,0.88,0.70,1.35,
4.792,0.67,-0.57,-4.03,0.67,0.65,1.35,
4.793,0.20,0.04,-4.36,0.67,0.65,1.35,
4.793,-1.13,-0.60,-2.08,0.67,0.65,1.35,
4.793,-1.13,-0.60,-2.08,0.43,0.61,1.42,
4.794,-1.13,-0.60,-2.08,0.27,0.63,1.63,
4.794,-0.98,-1.37,1.11,0.27,0.63,1.63,
4.795,0.34,-0.91,1.71,0.27,0.63,1.63,
4.795,0.34,-0.91,1.71,0.23,0.81,1.85,
4.795,0.34,-0.91,1.71,0.20,1.03,1.98,
4.796,1.76,-0.05,1.66,0.20,1.03,1.98,
4.796,1.76,-0.05,1.66,0.18,1.17,2.02,
4.797,1.77,-0.10,2.24,0.18,1.17,2.02,
4.797,1.28,-0.38,3.13,0.18,1.17,2.02,
4.826,1.28,-0.38,3.13,0.21,1.23,2.05,
4.827,1.43,-0.48,4.08,0.21,1.23,2.05,
4.827,1.43,-0.48,4.08,0.29,1.29,2.15,
4.828,1.43,-0.48,4.08,0.41,1.37,2.28,
4.828,3.68,-0.04,3.98,0.41,1.37,2.28,
4.829,3.68,-0.04,3.98,0.55,1.46,2.39,
4.829,6.39,0.72,3.17,0.55,1.46,2.39,
4.829,6.39,0.72,3.17,0.65,1.56,2.40,
4.83,9.50,1.54,1.84,0.65,1.56,2.40,
4.83,9.50,1.54,1.84,0.71,1.60,2.25,
4.83,12.29,2.21,0.28,0.71,1.60,2.25,
4.831,12.29,2.21,0.28,0.75,1.57,1.99,
4.831,13.98,2.82,-1.09,0.75,1.57,1.99,
4.832,13.98,2.82,-1.09,0.76,1.45,1.66,
4.832,14.61,3.40,-2.20,0.76,1.45,1.66,
4.833,14.61,3.40,-2.20,0.76,1.26,1.31,
4.833,14.42,3.92,-3.07,0.76,1.26,1.31,
4.833,14.42,3.92,-3.07,0.75,1.01,0.97,
4.834,13.56,4.29,-4.02,0.75,1.01,0.97,
4.834,12.36,4.58,-5.22,0.75,1.01,0.97,
4.835,12.36,4.58,-5.22,0.71,0.69,0.67,
4.835,11.41,4.92,-6.38,0.71,0.69,0.67,
4.835,11.41,4.92,-6.38,0.66,0.28,0.42,
4.844,11.41,4.92,-6.38,0.56,-0.19,0.23,
4.845,10.90,5.05,-7.10,0.56,-0.19,0.23,
4.845,10.74,5.13,-7.17,0.56,-0.19,0.23,
4.846,10.74,5.13,-7.17,0.44,-0.64,0.07,
4.854,10.74,5.13,-7.17,0.30,-0.99,-0.08,
4.854,10.80,5.08,-6.93,0.30,-0.99,-0.08,
4.855,10.80,5.08,-6.93,0.14,-1.23,-0.22,
4.855,10.96,5.04,-6.74,0.14,-1.23,-0.22,
4.911,10.83,4.95,-6.66,0.14,-1.23,-0.22,
4.912,10.83,4.95,-6.66,-0.02,-1.37,-0.34,
4.913,10.37,4.71,-6.50,-0.02,-1.37,-0.34,
4.914,10.37,4.71,-6.50,-0.21,-1.43,-0.45,
4.915,10.37,4.71,-6.50,-0.41,-1.41,-0.53,
4.915,9.76,4.45,-6.37,-0.41,-1.41,-0.53,
4.916,9.76,4.45,-6.37,-0.61,-1.34,-0.57,
4.917,9.25,4.24,-6.22,-0.61,-1.34,-0.57,
4.918,8.98,4.19,-5.78,-0.61,-1.34,-0.57,
4.919,8.98,4.19,-5.78,-0.79,-1.26,-0.57,
4.92,8.98,4.19,-5.78,-0.96,-1.17,-0.55,
4.92,8.95,4.23,-5.08,-0.96,-1.17,-0.55,
4.921,8.95,4.23,-5.08,-1.07,-1.08,-0.52,
4.922,9.06,4.35,-4.44,-1.07,-1.08,-0.52,
4.923,9.06,4.35,-4.44,-1.15,-0.99,-0.50,
4.923,9.16,4.46,-4.00,-1.15,-0.99,-0.50,
4.924,9.16,4.46,-4.00,-1.20,-0.90,-0.49,
4.925,9.40,4.49,-3.78,-1.20,-0.90,-0.49,
4.925,9.40,4.49,-3.78,-1.24,-0.82,-0.51,
4.926,10.19,4.52,-3.17,-1.24,-0.82,-0.51,
4.927,11.41,4.69,-2.11,-1.24,-0.82,-0.51,
4.928,11.41,4.69,-2.11,-1.24,-0.76,-0.56,
4.928,11.41,4.69,-2.11,-1.17,-0.72,-0.67,
4.929,12.64,5.01,-0.63,-1.17,-0.72,-0.67,
4.929,13.63,5.32,0.81,-1.17,-0.72,-0.67,
4.93,13.63,5.32,0.81,-1.01,-0.71,-0.84,
4.93,13.97,5.45,2.03,-1.01,-0.71,-0.84,
4.931,13.97,5.45,2.03,-0.74,-0.75,-1.06,
4.932,13.97,5.45,2.03,-0.38,-0.82,-1.31,
4.932,13.73,5.32,2.95,-0.38,-0.82,-1.31,
4.933,13.73,5.32,2.95,0.06,-0.91,-1.54,
4.933,13.00,5.00,3.57,0.06,-0.91,-1.54,
4.942,11.98,4.83,3.81,0.06,-0.91,-1.54,
4.943,11.98,4.83,3.81,0.58,-1.03,-1.73,
4.943,10.81,4.79,3.50,0.58,-1.03,-1.73,
4.944,10.81,4.79,3.50,1.14,-1.21,-1.89,
4.953,9.49,4.68,2.57,1.14,-1.21,-1.89,
4.954,9.49,4.68,2.57,1.72,-1.44,-2.02,
4.955,9.49,4.68,2.57,2.28,-1.69,-2.11,
4.955,8.04,4.44,0.84,2.28,-1.69,-2.11,
4.957,6.54,4.21,-1.41,2.28,-1.69,-2.11,
4.958,6.54,4.21,-1.41,2.76,-1.93,-2.15,
4.961,6.54,4.21,-1.41,3.14,-2.14,-2.13,
4.961,5.28,3.97,-3.77,3.14,-2.14,-2.13,
4.966,4.62,3.86,-5.98,3.14,-2.14,-2.13,
4.966,4.62,3.86,-5.98,3.40,-2.34,-2.06,
4.984,4.62,3.86,-5.98,3.55,-2.51,-1.95,
4.985,4.65,3.82,-7.87,3.55,-2.51,-1.95,
4.986,4.65,3.82,-7.87,3.61,-2.68,-1.84,
4.986,4.98,3.77,-9.52,3.61,-2.68,-1.84,
4.987,5.47,3.72,-10.92,3.61,-2.68,-1.84,
4.988,5.47,3.72,-10.92,3.60,-2.84,-1.74,
4.988,5.47,3.72,-10.92,3.55,-3.01,-1.67,
4.989,6.07,3.53,-11.81,3.55,-3.01,-1.67,
4.992,6.07,3.53,-11.81,3.46,-3.19,-1.61,
4.992,6.92,3.30,-12.25,3.46,-3.19,-1.61,
5.009,6.92,3.30,-12.25,3.39,-3.39,-1.56,
5.01,8.00,3.13,-12.28,3.39,-3.39,-1.56,
5.01,8.00,3.13,-12.28,3.34,-3.61,-1.52,
5.011,9.20,2.96,-12.17,3.34,-3.61,-1.52,
5.011,9.20,2.96,-12.17,3.32,-3.86,-1.52,
5.012,10.20,2.72,-12.10,3.32,-3.86,-1.52,
5.013,11.09,2.50,-12.06,3.32,-3.86,-1.52,
5.013,11.09,2.50,-12.06,3.34,-4.13,-1.55,
5.014,11.76,2.27,-12.31,3.34,-4.13,-1.55,
5.015,11.76,2.27,-12.31,3.37,-4.41,-1.61,
5.029,11.76,2.27,-12.31,3.38,-4.68,-1.69,
5.03,12.10,2.10,-12.66,3.38,-4.68,-1.69,
5.03,12.10,2.10,-12.66,3.35,-4.88,-1.78,
5.062,12.20,2.04,-12.94,3.35,-4.88,-1.78,
5.063,11.94,2.16,-13.40,3.35,-4.88,-1.78,
5.063,11.94,2.16,-13.40,3.27,-5.00,-1.88,
5.064,11.14,2.18,-14.12,3.27,-5.00,-1.88,
5.064,11.14,2.18,-14.12,3.12,-5.04,-1.98,
5.065,11.14,2.18,-14.12,2.91,-5.00,-2.05,
5.065,10.07,2.01,-15.30,2.91,-5.00,-2.05,
5.065,9.01,1.80,-16.59,2.91,-5.00,-2.05,
5.066,9.01,1.80,-16.59,2.60,-4.88,-2.05,
5.066,8.24,1.59,-17.73,2.60,-4.88,-2.05,
5.067,8.24,1.59,-17.73,2.20,-4.71,-1.99,
5.067,7.88,1.42,-18.51,2.20,-4.71,-1.99,
5.068,7.88,1.42,-18.51,1.72,-4.50,-1.88,
5.068,7.86,1.17,-18.54,1.72,-4.50,-1.88,
5.069,7.86,1.17,-18.54,1.18,-4.28,-1.76,
5.069,8.29,0.88,-17.94,1.18,-4.28,-1.76,
5.069,8.29,0.88,-17.94,0.63,-4.07,-1.63,
5.07,9.27,0.47,-17.09,0.63,-4.07,-1.63,
5.07,9.27,0.47,-17.09,0.12,-3.90,-1.52,
5.075,9.27,0.47,-17.09,-0.33,-3.79,-1.43,
5.075,10.42,0.12,-16.07,-0.33,-3.79,-1.43,
5.077,10.42,0.12,-16.07,-0.70,-3.74,-1.39,
5.078,11.53,-0.20,-15.10,-0.70,-3.74,-1.39,
5.082,12.67,-0.55,-14.31,-0.70,-3.74,-1.39,
5.083,12.67,-0.55,-14.31,-1.01,-3.73,-1.37,
5.087,12.67,-0.55,-14.31,-1.28,-3.75,-1.39,
5.088,13.90,-0.96,-13.72,-1.28,-3.75,-1.39,
5.092,15.05,-1.40,-13.26,-1.28,-3.75,-1.39,
5.093,15.05,-1.40,-13.26,-1.53,-3.79,-1.44,
5.097,16.09,-1.82,-12.72,-1.53,-3.79,-1.44,
5.098,16.09,-1.82,-12.72,-1.76,-3.82,-1.52,
5.107,17.12,-2.28,-12.09,-1.76,-3.82,-1.52,
5.108,17.12,-2.28,-12.09,-1.98,-3.88,-1.62,
5.108,18.18,-2.67,-11.52,-1.98,-3.88,-1.62,
5.109,18.18,-2.67,-11.52,-2.19,-3.96,-1.73,
5.112,19.23,-3.08,-10.77,-2.19,-3.96,-1.73,
5.113,19.23,-3.08,-10.77,-2.38,-4.05,-1.85,
5.116,19.23,-3.08,-10.77,-2.56,-4.14,-2.00,
5.117,20.08,-3.56,-9.75,-2.56,-4.14,-2.00,
5.128,20.08,-3.56,-9.75,-2.71,-4.21,-2.16,
5.129,20.61,-4.06,-8.51,-2.71,-4.21,-2.16,
5.129,20.61,-4.06,-8.51,-2.83,-4.26,-2.33,
5.13,20.78,-4.55,-7.22,-2.83,-4.26,-2.33,
5.131,20.78,-4.55,-7.22,-2.91,-4.29,-2.49,
5.132,20.76,-5.02,-5.87,-2.91,-4.29,-2.49,
5.141,20.67,-5.51,-4.63,-2.91,-4.29,-2.49,
5.142,20.67,-5.51,-4.63,-2.95,-4.29,-2.63,
5.142,20.67,-5.51,-4.63,-2.95,-4.28,-2.77,
5.143,20.55,-6.03,-3.56,-2.95,-4.28,-2.77,
5.146,20.30,-6.59,-2.65,-2.95,-4.28,-2.77,
5.147,20.30,-6.59,-2.65,-2.92,-4.26,-2.88,
5.15,20.05,-7.16,-2.04,-2.92,-4.26,-2.88,
5.151,20.05,-7.16,-2.04,-2.88,-4.24,-2.97,
5.156,19.87,-7.71,-1.64,-2.88,-4.24,-2.97,
5.156,19.87,-7.71,-1.64,-2.82,-4.19,-3.04,
5.16,19.77,-8.18,-1.26,-2.82,-4.19,-3.04,
5.161,19.77,-8.18,-1.26,-2.76,-4.12,-3.11,
5.165,19.76,-8.54,-1.02,-2.76,-4.12,-3.11,
5.166,19.76,-8.54,-1.02,-2.70,-4.04,-3.16,
5.171,19.76,-8.54,-1.02,-2.65,-3.97,-3.21,
5.172,19.89,-8.74,-0.99,-2.65,-3.97,-3.21,
5.175,20.08,-8.97,-1.00,-2.65,-3.97,-3.21,
5.176,20.08,-8.97,-1.00,-2.61,-3.91,-3.25,
5.18,20.33,-9.37,-0.93,-2.61,-3.91,-3.25,
5.181,20.33,-9.37,-0.93,-2.59,-3.83,-3.30,
5.186,20.33,-9.37,-0.93,-2.58,-3.75,-3.36,
5.187,20.53,-9.71,-0.84,-2.58,-3.75,-3.36,
5.189,20.53,-9.71,-0.84,-2.59,-3.69,-3.42,
5.19,20.61,-9.98,-0.79,-2.59,-3.69,-3.42,
5.195,20.61,-9.98,-0.79,-2.60,-3.64,-3.48,
5.195,20.59,-10.20,-0.66,-2.60,-3.64,-3.48,
5.199,20.59,-10.20,-0.66,-2.62,-3.60,-3.54,
5.2,20.47,-10.50,-0.43,-2.62,-3.60,-3.54,
5.204,20.40,-10.85,-0.12,-2.62,-3.60,-3.54,
5.205,20.40,-10.85,-0.12,-2.63,-3.57,-3.60,
5.21,20.40,-10.85,-0.12,-2.63,-3.56,-3.65,
5.211,20.34,-11.20,0.24,-2.63,-3.56,-3.65,
5.214,20.27,-11.40,0.57,-2.63,-3.56,-3.65,
5.215,20.27,-11.40,0.57,-2.63,-3.57,-3.69,
5.226,20.19,-11.45,0.91,-2.63,-3.57,-3.69,
5.227,20.19,-11.45,0.91,-2.61,-3.59,-3.72,
5.228,20.07,-11.56,1.20,-2.61,-3.59,-3.72,
5.229,20.07,-11.56,1.20,-2.59,-3.64,-3.76,
5.28,19.98,-11.74,1.48,-2.59,-3.64,-3.76,
5.281,19.98,-11.74,1.48,-2.57,-3.69,-3.80,
5.282,19.79,-11.93,1.75,-2.57,-3.69,-3.80,
5.282,19.79,-11.93,1.75,-2.54,-3.75,-3.83,
5.283,19.60,-12.11,2.00,-2.54,-3.75,-3.83,
5.284,19.60,-12.11,2.00,-2.52,-3.81,-3.85,
5.285,19.60,-12.11,2.00,-2.50,-3.85,-3.87,
5.285,19.39,-12.31,2.20,-2.50,-3.85,-3.87,
5.286,19.39,-12.31,2.20,-2.49,-3.90,-3.88,
5.287,19.18,-12.50,2.31,-2.49,-3.90,-3.88,
5.288,19.03,-12.51,2.41,-2.49,-3.90,-3.88,
5.288,19.03,-12.51,2.41,-2.50,-3.93,-3.88,
5.289,19.03,-12.51,2.41,-2.52,-3.95,-3.88,
5.289,18.86,-12.50,2.40,-2.52,-3.95,-3.88,
5.29,18.67,-12.64,2.51,-2.52,-3.95,-3.88,
5.291,18.67,-12.64,2.51,-2.56,-3.96,-3.87,
5.291,18.47,-12.86,2.71,-2.56,-3.96,-3.87,
5.323,18.47,-12.86,2.71,-2.62,-3.97,-3.87,
5.324,18.20,-13.20,3.12,-2.62,-3.97,-3.87,
5.325,18.20,-13.20,3.12,-2.70,-3.97,-3.86,
5.325,18.20,-13.20,3.12,-2.77,-3.96,-3.84,
5.326,18.06,-13.44,3.55,-2.77,-3.96,-3.84,
5.326,17.95,-13.72,4.08,-2.77,-3.96,-3.84,
5.327,17.95,-13.72,4.08,-2.84,-3.94,-3.81,
5.327,17.95,-13.72,4.08,-2.90,-3.93,-3.78,
5.328,17.86,-13.90,4.44,-2.90,-3.93,-3.78,
5.328,17.86,-13.90,4.44,-2.95,-3.91,-3.73,
5.329,17.81,-14.12,4.80,-2.95,-3.91,-3.73,
5.329,17.98,-14.27,5.22,-2.95,-3.91,-3.73,
5.33,17.98,-14.27,5.22,-2.99,-3.87,-3.67,
5.33,18.20,-14.34,5.58,-2.99,-3.87,-3.67,
5.331,18.20,-14.34,5.58,-3.01,-3.83,-3.61,
5.332,18.20,-14.34,5.58,-3.01,-3.79,-3.57,
5.333,18.40,-14.38,6.04,-3.01,-3.79,-3.57,
5.335,18.40,-14.38,6.04,-3.00,-3.77,-3.53,
5.335,18.46,-14.28,6.43,-3.00,-3.77,-3.53,
5.336,18.46,-14.28,6.43,-2.96,-3.75,-3.51,
5.336,18.40,-14.17,6.80,-2.96,-3.75,-3.51,
5.337,18.18,-14.06,7.18,-2.96,-3.75,-3.51,
5.338,18.18,-14.06,7.18,-2.90,-3.75,-3.50,
5.338,17.97,-13.87,7.48,-2.90,-3.75,-3.50,
5.339,17.97,-13.87,7.48,-2.83,-3.74,-3.49,
5.339,17.77,-13.61,7.72,-2.83,-3.74,-3.49,
5.34,17.77,-13.61,7.72,-2.75,-3.75,-3.50,
5.34,17.77,-13.61,7.72,-2.65,-3.75,-3.49,
5.341,17.57,-13.34,7.70,-2.65,-3.75,-3.49,
5.341,17.26,-13.12,7.54,-2.65,-3.75,-3.49,
5.342,17.26,-13.12,7.54,-2.56,-3.76,-3.49,
5.349,16.85,-12.91,7.29,-2.56,-3.76,-3.49,
5.351,16.85,-12.91,7.29,-2.48,-3.77,-3.50,
5.352,16.85,-12.91,7.29,-2.42,-3.77,-3.49,
5.352,16.36,-12.73,7.02,-2.42,-3.77,-3.49,
5.36,15.74,-12.52,6.70,-2.42,-3.77,-3.49,
5.362,15.74,-12.52,6.70,-2.38,-3.76,-3.48,
5.362,15.74,-12.52,6.70,-2.36,-3.73,-3.44,
5.362,15.19,-12.29,6.34,-2.36,-3.73,-3.44,
5.365,15.19,-12.29,6.34,-2.37,-3.66,-3.39,
5.366,14.74,-12.12,6.07,-2.37,-3.66,-3.39,
5.388,14.36,-11.97,5.92,-2.37,-3.66,-3.39,
5.39,14.36,-11.97,5.92,-2.38,-3.58,-3.34,
5.39,14.36,-11.97,5.92,-2.41,-3.48,-3.28,
5.391,14.01,-11.82,5.82,-2.41,-3.48,-3.28,
5.391,13.57,-11.67,5.79,-2.41,-3.48,-3.28,
5.392,13.57,-11.67,5.79,-2.43,-3.38,-3.24,
5.392,13.15,-11.61,5.74,-2.43,-3.38,-3.24,
5.393,13.15,-11.61,5.74,-2.46,-3.27,-3.18,
5.393,12.82,-11.45,5.61,-2.46,-3.27,-3.18,
5.393,12.82,-11.45,5.61,-2.48,-3.18,-3.12,
5.394,12.82,-11.45,5.61,-2.50,-3.11,-3.06,
5.394,12.56,-11.30,5.58,-2.50,-3.11,-3.06,
5.399,12.56,-11.30,5.58,-2.51,-3.03,-3.00,
5.399,12.25,-11.18,5.75,-2.51,-3.03,-3.00,
5.404,12.25,-11.18,5.75,-2.50,-2.97,-2.93,
5.405,11.98,-11.11,5.92,-2.50,-2.97,-2.93,
5.41,11.75,-10.95,6.06,-2.50,-2.97,-2.93,
5.41,11.75,-10.95,6.06,-2.47,-2.92,-2.87,
5.414,11.62,-10.75,6.22,-2.47,-2.92,-2.87,
5.414,11.62,-10.75,6.22,-2.43,-2.89,-2.80,
5.424,11.62,-10.75,6.22,-2.37,-2.88,-2.73,
5.425,11.50,-10.51,6.42,-2.37,-2.88,-2.73,
5.425,11.50,-10.51,6.42,-2.29,-2.89,-2.67,
5.426,11.45,-10.26,6.76,-2.29,-2.89,-2.67,
5.428,11.44,-10.04,7.11,-2.29,-2.89,-2.67,
5.429,11.44,-10.04,7.11,-2.18,-2.91,-2.62,
5.433,11.44,-10.04,7.11,-2.05,-2.94,-2.58,
5.434,11.46,-9.79,7.41,-2.05,-2.94,-2.58,
5.449,11.46,-9.79,7.41,-1.91,-2.97,-2.55,
5.45,11.41,-9.56,7.52,-1.91,-2.97,-2.55,
5.451,11.31,-9.34,7.57,-1.91,-2.97,-2.55,
5.451,11.31,-9.34,7.57,-1.75,-2.99,-2.51,
5.452,11.31,-9.34,7.57,-1.59,-3.01,-2.48,
5.452,11.09,-9.16,7.47,-1.59,-3.01,-2.48,
5.455,11.09,-9.16,7.47,-1.44,-3.03,-2.45,
5.456,10.89,-8.99,7.27,-1.44,-3.03,-2.45,
5.458,10.64,-8.77,7.01,-1.44,-3.03,-2.45,
5.459,10.64,-8.77,7.01,-1.30,-3.04,-2.41,
5.462,10.41,-8.58,6.66,-1.30,-3.04,-2.41,
5.463,10.41,-8.58,6.66,-1.18,-3.03,-2.36,
5.468,10.22,-8.39,6.32,-1.18,-3.03,-2.36,
5.468,10.22,-8.39,6.32,-1.09,-3.02,-2.31,
5.472,10.22,-8.39,6.32,-1.01,-3.01,-2.25,
5.473,10.10,-8.17,5.98,-1.01,-3.01,-2.25,
5.477,10.10,-8.17,5.98,-0.96,-2.99,-2.18,
5.478,10.01,-8.01,5.72,-0.96,-2.99,-2.18,
5.482,10.01,-8.01,5.72,-0.94,-2.96,-2.12,
5.482,9.98,-7.81,5.46,-0.94,-2.96,-2.12,
5.494,9.98,-7.81,5.46,-0.93,-2.92,-2.06,
5.494,9.91,-7.58,5.24,-0.93,-2.92,-2.06,
5.495,9.91,-7.58,5.24,-0.94,-2.87,-2.01,
5.495,9.83,-7.35,5.07,-0.94,-2.87,-2.01,
5.497,9.83,-7.35,5.07,-0.96,-2.80,-1.96,
5.497,9.76,-7.18,5.07,-0.96,-2.80,-1.96,
5.501,9.76,-7.18,5.07,-0.99,-2.72,-1.91,
5.502,9.65,-7.00,5.07,-0.99,-2.72,-1.91,
5.516,9.65,-7.00,5.07,-1.02,-2.63,-1.87,
5.517,9.44,-6.83,5.10,-1.02,-2.63,-1.87,
5.517,9.44,-6.83,5.10,-1.05,-2.55,-1.83,
5.553,9.19,-6.71,5.15,-1.05,-2.55,-1.83,
5.553,8.93,-6.53,5.19,-1.05,-2.55,-1.83,
5.553,8.93,-6.53,5.19,-1.09,-2.45,-1.79,
5.554,8.93,-6.53,5.19,-1.12,-2.35,-1.73,
5.554,8.81,-6.45,5.29,-1.12,-2.35,-1.73,
5.554,8.81,-6.45,5.29,-1.15,-2.26,-1.68,
5.555,8.79,-6.33,5.34,-1.15,-2.26,-1.68,
5.555,8.79,-6.33,5.34,-1.16,-2.17,-1.63,
5.555,8.84,-6.21,5.40,-1.16,-2.17,-1.63,
5.556,8.84,-6.21,5.40,-1.18,-2.08,-1.59,
5.556,9.00,-6.02,5.48,-1.18,-2.08,-1.59,
5.556,9.00,-6.02,5.48,-1.18,-2.01,-1.57,
5.557,9.18,-5.83,5.52,-1.18,-2.01,-1.57,
5.557,9.18,-5.83,5.52,-1.18,-1.96,-1.56,
5.557,9.48,-5.66,5.52,-1.18,-1.96,-1.56,
5.558,9.48,-5.66,5.52,-1.16,-1.91,-1.57,
5.558,9.92,-5.45,5.41,-1.16,-1.91,-1.57,
5.558,9.92,-5.45,5.41,-1.15,-1.88,-1.61,
5.559,10.24,-5.27,5.24,-1.15,-1.88,-1.61,
5.563,10.24,-5.27,5.24,-1.14,-1.85,-1.68,
5.564,10.47,-5.12,5.04,-1.14,-1.85,-1.68,
5.572,10.47,-5.12,5.04,-1.13,-1.84,-1.77,
5.572,10.47,-5.00,4.91,-1.13,-1.84,-1.77,
5.573,10.47,-5.00,4.91,-1.13,-1.83,-1.89,
5.573,10.18,-4.98,4.83,-1.13,-1.83,-1.89,
5.575,10.18,-4.98,4.83,-1.12,-1.83,-2.00,
5.575,9.75,-5.01,4.93,-1.12,-1.83,-2.00,
5.594,9.22,-5.03,5.11,-1.12,-1.83,-2.00,
5.595,9.22,-5.03,5.11,-1.10,-1.85,-2.11,
5.596,9.22,-5.03,5.11,-1.07,-1.89,-2.20,
5.596,8.74,-5.08,5.43,-1.07,-1.89,-2.20,
5.596,8.32,-5.14,5.82,-1.07,-1.89,-2.20,
5.597,8.32,-5.14,5.82,-1.01,-1.95,-2.28,
5.597,8.32,-5.14,5.82,-0.92,-2.02,-2.35,
5.597,7.95,-5.31,6.08,-0.92,-2.02,-2.35,
5.614,7.47,-5.51,6.24,-0.92,-2.02,-2.35,
5.615,7.47,-5.51,6.24,-0.82,-2.11,-2.41,
5.615,6.94,-5.68,6.17,-0.82,-2.11,-2.41,
5.616,6.94,-5.68,6.17,-0.71,-2.22,-2.46,
5.616,6.34,-5.81,5.99,-0.71,-2.22,-2.46,
5.616,6.34,-5.81,5.99,-0.61,-2.32,-2.50,
5.617,5.75,-5.94,5.62,-0.61,-2.32,-2.50,
5.617,5.75,-5.94,5.62,-0.52,-2.41,-2.51,
5.62,5.17,-5.99,5.21,-0.52,-2.41,-2.51,
5.62,5.17,-5.99,5.21,-0.46,-2.48,-2.50,
5.623,5.17,-5.99,5.21,-0.43,-2.54,-2.47,
5.624,4.54,-5.93,4.82,-0.43,-2.54,-2.47,
5.628,4.54,-5.93,4.82,-0.43,-2.58,-2.43,
5.629,3.99,-5.82,4.49,-0.43,-2.58,-2.43,
5.633,3.99,-5.82,4.49,-0.44,-2.59,-2.36,
5.634,3.52,-5.66,4.37,-0.44,-2.59,-2.36,
5.642,3.19,-5.50,4.33,-0.44,-2.59,-2.36,
5.643,3.19,-5.50,4.33,-0.47,-2.60,-2.29,
5.643,3.19,-5.50,4.33,-0.49,-2.59,-2.20,
5.643,3.07,-5.40,4.32,-0.49,-2.59,-2.20,
5.648,3.07,-5.40,4.32,-0.50,-2.58,-2.10,
5.649,3.20,-5.19,4.23,-0.50,-2.58,-2.10,
5.665,3.47,-4.88,3.90,-0.50,-2.58,-2.10,
5.665,3.47,-4.88,3.90,-0.50,-2.56,-1.99,
5.666,3.47,-4.88,3.90,-0.52,-2.53,-1.91,
5.666,3.71,-4.50,3.45,-0.52,-2.53,-1.91,
5.666,3.71,-4.50,3.45,-0.54,-2.50,-1.84,
5.667,3.95,-4.22,3.02,-0.54,-2.50,-1.84,
5.667,4.25,-4.11,2.55,-0.54,-2.50,-1.84,
5.668,4.25,-4.11,2.55,-0.57,-2.44,-1.78,
5.672,4.56,-4.04,2.19,-0.57,-2.44,-1.78,
5.673,4.56,-4.04,2.19,-0.62,-2.37,-1.73,
5.677,4.96,-3.93,1.86,-0.62,-2.37,-1.73,
5.678,4.96,-3.93,1.86,-0.68,-2.30,-1.68,
5.682,5.51,-3.89,1.73,-0.68,-2.30,-1.68,
5.682,5.51,-3.89,1.73,-0.75,-2.23,-1.64,
5.687,6.17,-3.69,1.79,-0.75,-2.23,-1.64,
5.688,6.17,-3.69,1.79,-0.81,-2.17,-1.61,
5.692,6.75,-3.48,1.88,-0.81,-2.17,-1.61,
5.692,6.75,-3.48,1.88,-0.86,-2.13,-1.61,
5.697,6.75,-3.48,1.88,-0.90,-2.12,-1.63,
5.697,7.28,-3.39,1.85,-0.90,-2.12,-1.63,
5.702,7.68,-3.46,1.71,-0.90,-2.12,-1.63,
5.702,7.68,-3.46,1.71,-0.92,-2.13,-1.69,
5.706,7.86,-3.60,1.53,-0.92,-2.13,-1.69,
5.707,7.86,-3.60,1.53,-0.96,-2.15,-1.76,
5.711,7.94,-3.71,1.35,-0.96,-2.15,-1.76,
5.712,7.94,-3.71,1.35,-1.01,-2.17,-1.85,
5.717,7.98,-3.91,1.24,-1.01,-2.17,-1.85,
5.717,7.98,-3.91,1.24,-1.07,-2.18,-1.93,
5.766,7.85,-4.09,1.14,-1.07,-2.18,-1.93,
5.767,7.85,-4.09,1.14,-1.15,-2.16,-2.00,
5.768,7.85,-4.09,1.14,-1.25,-2.13,-2.07,
5.768,7.58,-4.39,1.06,-1.25,-2.13,-2.07,
5.769,7.58,-4.39,1.06,-1.35,-2.08,-2.14,
5.769,7.19,-4.59,0.99,-1.35,-2.08,-2.14,
5.77,7.19,-4.59,0.99,-1.47,-2.00,-2.19,
5.77,6.78,-4.77,0.93,-1.47,-2.00,-2.19,
5.771,6.78,-4.77,0.93,-1.59,-1.91,-2.23,
5.771,6.30,-5.01,0.85,-1.59,-1.91,-2.23,
5.772,5.86,-5.30,0.85,-1.59,-1.91,-2.23,
5.772,5.86,-5.30,0.85,-1.73,-1.82,-2.25,
5.773,5.50,-5.55,1.01,-1.73,-1.82,-2.25,
5.773,5.50,-5.55,1.01,-1.86,-1.73,-2.27,
5.774,5.50,-5.55,1.01,-1.99,-1.64,-2.27,
5.806,5.08,-5.77,1.32,-1.99,-1.64,-2.27,
5.806,5.08,-5.77,1.32,-2.11,-1.55,-2.27,
5.807,4.60,-5.94,1.70,-2.11,-1.55,-2.27,
5.807,4.19,-6.15,2.05,-2.11,-1.55,-2.27,
5.808,4.19,-6.15,2.05,-2.20,-1.48,-2.25,
5.808,4.19,-6.15,2.05,-2.27,-1.42,-2.23,
5.809,3.86,-6.41,2.43,-2.27,-1.42,-2.23,
5.809,3.86,-6.41,2.43,-2.31,-1.38,-2.19,
5.81,3.74,-6.72,2.96,-2.31,-1.38,-2.19,
5.81,3.74,-6.72,2.96,-2.32,-1.38,-2.16,
5.811,3.71,-6.91,3.68,-2.32,-1.38,-2.16,
5.811,3.71,-6.91,3.68,-2.29,-1.40,-2.13,
5.811,3.54,-6.96,4.47,-2.29,-1.40,-2.13,
5.812,3.54,-6.96,4.47,-2.20,-1.46,-2.12,
5.812,3.33,-6.98,5.18,-2.20,-1.46,-2.12,
5.813,3.33,-6.98,5.18,-2.06,-1.55,-2.10,
5.813,3.13,-7.07,5.67,-2.06,-1.55,-2.10,
5.814,2.87,-7.13,5.83,-2.06,-1.55,-2.10,
5.814,2.87,-7.13,5.83,-1.90,-1.68,-2.07,
5.815,2.87,-7.13,5.83,-1.74,-1.83,-2.04,
5.815,2.52,-7.14,5.87,-1.74,-1.83,-2.04,
5.815,2.22,-7.10,5.84,-1.74,-1.83,-2.04,
5.816,2.22,-7.10,5.84,-1.58,-1.99,-2.00,
5.816,2.01,-6.98,5.78,-1.58,-1.99,-2.00,
5.817,2.01,-6.98,5.78,-1.44,-2.15,-1.95,
5.819,1.95,-6.86,5.71,-1.44,-2.15,-1.95,
5.82,1.95,-6.86,5.71,-1.33,-2.28,-1.89,
5.827,1.87,-6.74,5.68,-1.33,-2.28,-1.89,
5.828,1.87,-6.74,5.68,-1.23,-2.39,-1.83,
5.829,1.87,-6.74,5.68,-1.15,-2.46,-1.77,
5.836,1.63,-6.58,5.71,-1.15,-2.46,-1.77,
5.837,1.44,-6.42,5.69,-1.15,-2.46,-1.77,
5.839,1.44,-6.42,5.69,-1.10,-2.48,-1.71,
5.839,1.44,-6.42,5.69,-1.06,-2.45,-1.64,
5.839,1.31,-6.29,5.70,-1.06,-2.45,-1.64,
5.843,1.31,-6.29,5.70,-1.04,-2.38,-1.56,
5.844,1.40,-6.21,5.68,-1.04,-2.38,-1.56,
5.848,1.51,-6.19,5.77,-1.04,-2.38,-1.56,
5.848,1.51,-6.19,5.77,-1.03,-2.27,-1.50,
5.853,1.30,-6.17,5.93,-1.03,-2.27,-1.50,
5.853,1.30,-6.17,5.93,-1.02,-2.13,-1.45,
5.861,0.92,-6.30,6.29,-1.02,-2.13,-1.45,
5.862,0.92,-6.30,6.29,-1.00,-1.97,-1.40,
5.865,0.92,-6.30,6.29,-0.95,-1.81,-1.34,
5.865,0.48,-6.38,6.75,-0.95,-1.81,-1.34,
5.867,0.48,-6.38,6.75,-0.86,-1.67,-1.26,
5.868,0.24,-6.34,7.21,-0.86,-1.67,-1.26,
5.89,0.08,-6.29,7.58,-0.86,-1.67,-1.26,
5.891,0.08,-6.29,7.58,-0.73,-1.57,-1.17,
5.892,0.08,-6.29,7.58,-0.55,-1.53,-1.08,
5.892,-0.06,-6.22,7.64,-0.55,-1.53,-1.08,
5.892,-0.38,-6.16,7.46,-0.55,-1.53,-1.08,
5.893,-0.38,-6.16,7.46,-0.34,-1.55,-0.98,
5.893,-0.68,-6.02,7.11,-0.34,-1.55,-0.98,
5.894,-0.68,-6.02,7.11,-0.12,-1.64,-0.87,
5.894,-0.68,-6.02,7.11,0.11,-1.79,-0.73,
5.894,-0.94,-5.94,6.69,0.11,-1.79,-0.73,
5.898,-0.94,-5.89,6.29,0.11,-1.79,-0.73,
5.898,-0.94,-5.89,6.29,0.33,-1.99,-0.59,
5.901,-0.66,-5.87,5.92,0.33,-1.99,-0.59,
5.902,-0.66,-5.87,5.92,0.53,-2.25,-0.43,
5.914,-0.66,-5.87,5.92,0.73,-2.56,-0.29,
5.915,-0.37,-5.78,5.47,0.73,-2.56,-0.29,
5.916,0.18,-5.64,4.90,0.73,-2.56,-0.29,
5.916,0.18,-5.64,4.90,0.91,-2.89,-0.17,
5.916,0.18,-5.64,4.90,1.07,-3.24,-0.08,
5.916,0.48,-5.72,4.19,1.07,-3.24,-0.08,
5.922,0.48,-5.72,4.19,1.19,-3.57,-0.01,
5.923,0.45,-5.78,3.55,1.19,-3.57,-0.01,
5.926,0.45,-5.78,3.55,1.27,-3.88,0.05,
5.927,0.23,-5.75,2.90,1.27,-3.88,0.05,
5.931,0.23,-5.75,2.90,1.31,-4.18,0.12,
5.931,0.04,-5.55,2.33,1.31,-4.18,0.12,
5.936,0.04,-5.55,2.33,1.29,-4.44,0.19,
5.936,-0.05,-5.27,1.85,1.29,-4.44,0.19,
5.941,-0.04,-5.06,1.44,1.29,-4.44,0.19,
5.942,-0.04,-5.06,1.44,1.23,-4.64,0.27,
5.946,0.22,-4.97,1.32,1.23,-4.64,0.27,
5.946,0.22,-4.97,1.32,1.11,-4.75,0.37,
5.951,0.70,-4.95,1.49,1.11,-4.75,0.37,
5.951,0.70,-4.95,1.49,0.95,-4.77,0.46,
5.955,1.05,-4.77,2.22,0.95,-4.77,0.46,
5.956,1.05,-4.77,2.22,0.76,-4.72,0.54,
5.96,1.61,-4.61,3.19,0.76,-4.72,0.54,
5.961,1.61,-4.61,3.19,0.58,-4.57,0.61,
5.965,2.24,-4.42,4.25,0.58,-4.57,0.61,
5.965,2.24,-4.42,4.25,0.41,-4.32,0.64,
5.98,2.24,-4.42,4.25,0.27,-4.01,0.66,
5.982,2.69,-4.28,5.45,0.27,-4.01,0.66,
5.982,2.93,-4.12,6.70,0.27,-4.01,0.66,
5.983,2.93,-4.12,6.70,0.17,-3.65,0.64,
5.984,3.00,-3.94,7.90,0.17,-3.65,0.64,
5.984,3.00,-3.94,7.90,0.11,-3.24,0.61,
5.985,2.85,-3.69,9.04,0.11,-3.24,0.61,
5.986,2.85,-3.69,9.04,0.10,-2.81,0.55,
5.989,2.85,-3.69,9.04,0.14,-2.40,0.50,
5.99,2.32,-3.41,10.13,0.14,-2.40,0.50,
6.017,1.76,-3.26,11.02,0.14,-2.40,0.50,
6.018,1.76,-3.26,11.02,0.25,-2.01,0.46,
6.018,1.76,-3.26,11.02,0.42,-1.67,0.45,
6.053,1.37,-3.11,11.58,0.42,-1.67,0.45,
6.053,1.37,-3.11,11.58,0.64,-1.40,0.46,
6.054,1.05,-2.97,11.70,0.64,-1.40,0.46,
6.054,0.81,-2.69,11.46,0.64,-1.40,0.46,
6.054,0.81,-2.69,11.46,0.89,-1.19,0.48,
6.055,0.81,-2.69,11.46,1.16,-1.04,0.51,
6.055,0.72,-2.48,10.87,1.16,-1.04,0.51,
6.056,0.91,-2.38,9.94,1.16,-1.04,0.51,
6.056,0.91,-2.38,9.94,1.42,-0.95,0.55,
6.056,0.91,-2.38,9.94,1.66,-0.86,0.58,
6.057,1.35,-2.44,8.79,1.66,-0.86,0.58,
6.057,1.35,-2.44,8.79,1.85,-0.79,0.59,
6.057,1.93,-2.52,7.56,1.85,-0.79,0.59,
6.058,1.93,-2.52,7.56,2.01,-0.71,0.57,
6.058,2.46,-2.51,6.39,2.01,-0.71,0.57,
6.058,2.46,-2.51,6.39,2.12,-0.62,0.52,
6.059,2.88,-2.46,5.14,2.12,-0.62,0.52,
6.059,2.88,-2.46,5.14,2.18,-0.53,0.45,
6.059,3.13,-2.39,3.84,2.18,-0.53,0.45,
6.059,3.13,-2.39,3.84,2.19,-0.42,0.37,
6.06,3.32,-2.35,2.59,2.19,-0.42,0.37,
6.06,3.32,-2.35,2.59,2.16,-0.32,0.28,
6.06,3.36,-2.32,1.35,2.16,-0.32,0.28,
6.061,3.36,-2.32,1.35,2.07,-0.22,0.19,
6.061,3.22,-2.23,0.24,2.07,-0.22,0.19,
6.067,3.22,-2.23,0.24,1.95,-0.13,0.10,
6.068,2.91,-2.19,-0.68,1.95,-0.13,0.10,
6.068,2.91,-2.19,-0.68,1.80,-0.04,0.03,
6.068,2.53,-2.16,-1.38,1.80,-0.04,0.03,
6.072,2.53,-2.16,-1.38,1.62,0.04,-0.03,
6.073,2.16,-2.21,-1.96,1.62,0.04,-0.03,
6.077,2.16,-2.21,-1.96,1.43,0.09,-0.07,
6.078,1.94,-2.26,-2.46,1.43,0.09,-0.07,
6.082,1.94,-2.26,-2.46,1.22,0.13,-0.10,
6.082,1.75,-2.29,-2.84,1.22,0.13,-0.10,
6.086,1.43,-2.31,-3.03,1.22,0.13,-0.10,
6.087,1.43,-2.31,-3.03,1.00,0.16,-0.12,
6.093,1.43,-2.31,-3.03,0.78,0.18,-0.15,
6.094,1.03,-2.32,-3.02,0.78,0.18,-0.15,
6.096,1.03,-2.32,-3.02,0.56,0.21,-0.16,
6.097,0.62,-2.26,-2.88,0.56,0.21,-0.16,
6.102,0.19,-2.19,-2.55,0.56,0.21,-0.16,
6.102,0.19,-2.19,-2.55,0.34,0.24,-0.16,
6.117,0.19,-2.19,-2.55,0.15,0.27,-0.15,
6.118,-0.20,-2.17,-2.08,0.15,0.27,-0.15,
6.118,-0.20,-2.17,-2.08,-0.03,0.30,-0.13,
6.118,-0.51,-2.22,-1.60,-0.03,0.30,-0.13,
6.119,-0.51,-2.22,-1.60,-0.17,0.34,-0.09,
6.119,-0.70,-2.31,-1.02,-0.17,0.34,-0.09,
6.122,-0.85,-2.30,-0.54,-0.17,0.34,-0.09,
6.122,-0.85,-2.30,-0.54,-0.29,0.38,-0.04,
6.126,-0.85,-2.30,-0.54,-0.38,0.41,0.00,
6.127,-0.93,-2.31,-0.12,-0.38,0.41,0.00,
6.131,-0.93,-2.33,0.20,-0.38,0.41,0.00,
6.131,-0.93,-2.33,0.20,-0.46,0.43,0.04,
6.135,-0.98,-2.35,0.53,-0.46,0.43,0.04,
6.136,-0.98,-2.35,0.53,-0.52,0.46,0.08,
6.141,-0.98,-2.35,0.53,-0.57,0.49,0.11,
6.141,-1.13,-2.40,0.96,-0.57,0.49,0.11,
6.145,-1.22,-2.44,1.42,-0.57,0.49,0.11,
6.146,-1.22,-2.44,1.42,-0.61,0.51,0.15,
6.151,-1.23,-2.47,1.97,-0.61,0.51,0.15,
6.152,-1.23,-2.47,1.97,-0.63,0.52,0.19,
6.156,-1.27,-2.53,2.62,-0.63,0.52,0.19,
6.157,-1.27,-2.53,2.62,-0.64,0.52,0.22,
6.16,-1.33,-2.66,3.26,-0.64,0.52,0.22,
6.161,-1.33,-2.66,3.26,-0.62,0.53,0.24,
6.165,-1.52,-2.68,3.95,-0.62,0.53,0.24,
6.166,-1.52,-2.68,3.95,-0.58,0.54,0.26,
6.171,-1.69,-2.75,4.65,-0.58,0.54,0.26,
6.172,-1.69,-2.75,4.65,-0.50,0.54,0.27,
6.177,-1.69,-2.75,4.65,-0.39,0.52,0.28,
6.178,-1.72,-2.77,5.22,-0.39,0.52,0.28,
6.18,-1.72,-2.77,5.22,-0.26,0.49,0.30,
6.181,-1.79,-2.80,5.63,-0.26,0.49,0.30,
6.185,-1.79,-2.80,5.63,-0.10,0.47,0.32,
6.185,-1.85,-2.83,5.72,-0.10,0.47,0.32,
6.191,-1.85,-2.83,5.72,0.06,0.44,0.34,
6.192,-1.84,-2.86,5.61,0.06,0.44,0.34,
6.195,-1.84,-2.86,5.61,0.21,0.43,0.36,
6.196,-1.92,-2.86,5.36,0.21,0.43,0.36,
6.2,-1.92,-2.86,5.36,0.35,0.43,0.39,
6.2,-2.12,-2.92,4.97,0.35,0.43,0.39,
6.216,-2.12,-2.92,4.97,0.47,0.45,0.43,
6.218,-2.25,-2.95,4.51,0.47,0.45,0.43,
6.221,-2.21,-3.14,3.90,0.47,0.45,0.43,
6.222,-2.21,-3.14,3.90,0.57,0.48,0.48,
6.223,-2.09,-3.35,3.30,0.57,0.48,0.48,
6.223,-2.09,-3.35,3.30,0.64,0.51,0.53,
6.224,-2.11,-3.46,2.70,0.64,0.51,0.53,
6.225,-2.25,-3.45,2.17,0.64,0.51,0.53,
6.225,-2.25,-3.45,2.17,0.67,0.53,0.59,
6.226,-2.25,-3.45,2.17,0.69,0.55,0.64,
6.279,-2.25,-3.45,2.17,0.68,0.57,0.71,
6.28,-2.29,-3.45,1.66,0.68,0.57,0.71,
6.28,-2.29,-3.45,1.66,0.64,0.58,0.78,
6.28,-2.22,-3.48,1.24,0.64,0.58,0.78,
6.281,-2.23,-3.59,0.99,0.64,0.58,0.78,
6.282,-2.23,-3.59,0.99,0.59,0.58,0.86,
6.282,-2.23,-3.59,0.99,0.54,0.59,0.93,
6.312,-2.32,-3.60,0.92,0.54,0.59,0.93,
6.313,-2.34,-3.57,0.84,0.54,0.59,0.93,
6.313,-2.34,-3.57,0.84,0.49,0.61,1.02,
6.314,-2.40,-3.55,0.71,0.49,0.61,1.02,
6.314,-2.40,-3.55,0.71,0.44,0.64,1.12,
6.314,-2.40,-3.55,0.71,0.39,0.68,1.24,
6.315,-2.40,-3.51,0.47,0.39,0.68,1.24,
6.315,-2.40,-3.51,0.47,0.34,0.74,1.37,
6.316,-2.18,-3.50,0.17,0.34,0.74,1.37,
6.316,-2.18,-3.50,0.17,0.27,0.80,1.50,
6.316,-1.67,-3.57,-0.20,0.27,0.80,1.50,
6.317,-1.01,-3.66,-0.68,0.27,0.80,1.50,
6.317,-1.01,-3.66,-0.68,0.18,0.89,1.63,
6.317,-0.62,-3.63,-1.20,0.18,0.89,1.63,
6.318,-0.62,-3.63,-1.20,0.05,0.97,1.73,
6.318,-0.54,-3.39,-1.63,0.05,0.97,1.73,
6.318,-0.54,-3.39,-1.63,-0.10,1.07,1.81,
6.319,-0.54,-3.39,-1.63,-0.28,1.18,1.88,
6.319,-0.54,-3.20,-1.90,-0.28,1.18,1.88,
6.32,-0.22,-3.15,-2.06,-0.28,1.18,1.88,
6.32,-0.22,-3.15,-2.06,-0.49,1.27,1.97,
6.321,-0.22,-3.15,-2.06,-0.72,1.36,2.06,
6.321,0.20,-3.19,-2.25,-0.72,1.36,2.06,
6.321,0.20,-3.19,-2.25,-0.95,1.44,2.14,
6.322,0.66,-3.24,-2.30,-0.95,1.44,2.14,
6.322,0.66,-3.24,-2.30,-1.18,1.50,2.20,
6.322,0.86,-3.16,-2.16,-1.18,1.50,2.20,
6.323,1.06,-3.08,-1.94,-1.18,1.50,2.20,
6.323,1.06,-3.08,-1.94,-1.40,1.54,2.26,
6.323,1.06,-3.08,-1.94,-1.61,1.55,2.32,
6.324,1.54,-3.06,-1.78,-1.61,1.55,2.32,
6.324,1.05,-4.22,-2.26,-1.61,1.55,2.32,
6.325,1.05,-4.22,-2.26,-1.80,1.50,2.37,
6.326,1.05,-4.22,-2.26,-1.99,1.38,2.45,
6.327,1.36,-4.68,-2.15,-1.99,1.38,2.45,
6.334,1.36,-3.75,-1.37,-1.99,1.38,2.45,
6.335,1.36,-3.75,-1.37,-2.18,1.27,2.52,
6.335,1.90,-2.48,-0.03,-2.18,1.27,2.52,
6.336,1.90,-2.48,-0.03,-2.32,1.17,2.56,
6.34,1.90,-2.48,-0.03,-2.39,0.97,2.61,
6.341,3.46,-1.48,1.11,-2.39,0.97,2.61,
6.345,3.46,-1.48,1.11,-2.40,0.74,2.61,
6.346,5.91,-1.14,2.47,-2.40,0.74,2.61,
6.35,5.91,-1.14,2.47,-2.30,0.53,2.48,
6.351,8.24,-1.45,3.52,-2.30,0.53,2.48,
6.361,8.24,-1.45,3.52,-2.11,0.33,2.23,
6.362,9.58,-2.25,3.26,-2.11,0.33,2.23,
6.362,9.80,-3.13,2.15,-2.11,0.33,2.23,
6.362,9.80,-3.13,2.15,-1.88,0.23,1.92,
6.365,9.80,-3.13,2.15,-1.68,0.20,1.62,
6.365,9.50,-3.63,0.84,-1.68,0.20,1.62,
6.37,9.50,-3.63,0.84,-1.57,0.19,1.36,
6.37,9.07,-3.77,-0.26,-1.57,0.19,1.36,
6.391,9.07,-3.77,-0.26,-1.55,0.14,1.13,
6.391,8.67,-3.73,-1.10,-1.55,0.14,1.13,
6.392,8.67,-3.73,-1.10,-1.59,0.09,0.90,
6.392,8.25,-3.83,-1.49,-1.59,0.09,0.90,
6.393,8.25,-3.83,-1.49,-1.67,0.04,0.68,
6.393,7.45,-4.08,-1.65,-1.67,0.04,0.68,
6.393,6.39,-4.37,-1.66,-1.67,0.04,0.68,
6.394,6.39,-4.37,-1.66,-1.76,-0.02,0.47,
6.394,5.34,-4.82,-1.62,-1.76,-0.02,0.47,
6.394,5.34,-4.82,-1.62,-1.87,-0.08,0.31,
6.399,5.34,-4.82,-1.62,-1.98,-0.09,0.20,
6.399,4.69,-5.30,-1.65,-1.98,-0.09,0.20,
6.404,4.59,-5.88,-1.58,-1.98,-0.09,0.20,
6.404,4.59,-5.88,-1.58,-2.11,-0.08,0.14,
6.409,4.59,-5.88,-1.58,-2.23,-0.02,0.08,
6.409,4.56,-6.52,-1.24,-2.23,-0.02,0.08,
6.414,4.56,-6.52,-1.24,-2.36,0.05,0.01,
6.414,4.02,-7.08,-0.43,-2.36,0.05,0.01,
6.418,2.92,-7.39,0.85,-2.36,0.05,0.01,
6.419,2.92,-7.39,0.85,-2.46,0.10,-0.05,
6.428,1.94,-7.66,2.45,-2.46,0.10,-0.05,
6.429,1.94,-7.66,2.45,-2.52,0.15,-0.07,
6.43,1.84,-8.04,3.94,-2.52,0.15,-0.07,
6.43,1.84,-8.04,3.94,-2.49,0.19,-0.03,
6.433,2.44,-8.49,5.07,-2.49,0.19,-0.03,
6.433,2.44,-8.49,5.07,-2.39,0.23,0.02,
6.439,2.77,-8.82,5.88,-2.39,0.23,0.02,
6.44,2.77,-8.82,5.88,-2.23,0.26,0.02,
6.456,2.61,-9.03,6.39,-2.23,0.26,0.02,
6.457,2.61,-9.03,6.39,-2.02,0.28,-0.02,
6.457,2.14,-9.11,6.69,-2.02,0.28,-0.02,
6.458,2.14,-9.11,6.69,-1.79,0.30,-0.06,
6.458,2.14,-9.11,6.69,-1.55,0.29,-0.08,
6.458,1.62,-9.04,6.66,-1.55,0.29,-0.08,
6.459,1.62,-9.04,6.66,-1.30,0.26,-0.06,
6.459,1.29,-8.82,6.37,-1.30,0.26,-0.06,
6.462,1.29,-8.82,6.37,-1.05,0.25,-0.01,
6.463,1.19,-8.65,6.05,-1.05,0.25,-0.01,
6.467,1.23,-8.59,5.56,-1.05,0.25,-0.01,
6.468,1.23,-8.59,5.56,-0.81,0.27,0.05,
6.473,1.23,-8.59,5.56,-0.61,0.34,0.14,
6.474,1.26,-8.52,4.86,-0.61,0.34,0.14,
6.478,1.33,-8.30,3.88,-0.61,0.34,0.14,
6.478,1.33,-8.30,3.88,-0.43,0.46,0.26,
6.482,1.61,-7.91,2.45,-0.43,0.46,0.26,
6.483,1.61,-7.91,2.45,-0.30,0.60,0.42,
6.487,2.38,-7.53,0.77,-0.30,0.60,0.42,
6.526,2.38,-7.53,0.77,-0.22,0.79,0.60,
6.527,3.25,-7.47,-0.91,-0.22,0.79,0.60,
6.527,3.25,-7.47,-0.91,-0.22,1.01,0.77,
6.528,3.25,-7.47,-0.91,-0.29,1.27,0.92,
6.528,3.73,-7.61,-2.16,-0.29,1.27,0.92,
6.528,3.75,-7.71,-2.75,-0.29,1.27,0.92,
6.528,3.75,-7.71,-2.75,-0.42,1.52,1.06,
6.529,3.75,-7.71,-2.75,-0.57,1.75,1.21,
6.529,4.09,-7.93,-2.83,-0.57,1.75,1.21,
6.529,4.09,-7.93,-2.83,-0.71,1.95,1.38,
6.53,5.06,-8.51,-2.72,-0.71,1.95,1.38,
6.53,5.06,-8.51,-2.72,-0.81,2.12,1.49,
6.53,5.89,-9.22,-2.37,-0.81,2.12,1.49,
6.531,6.21,-9.72,-1.67,-0.81,2.12,1.49,
6.531,6.21,-9.72,-1.67,-0.88,2.23,1.56,
6.531,6.15,-10.04,-0.54,-0.88,2.23,1.56,
6.532,6.15,-10.04,-0.54,-0.88,2.27,1.60,
6.532,5.80,-10.45,1.12,-0.88,2.27,1.60,
6.533,5.80,-10.45,1.12,-0.79,2.24,1.64,
6.537,5.37,-10.85,3.13,-0.79,2.24,1.64,
6.538,5.37,-10.85,3.13,-0.58,2.13,1.70,
6.54,5.16,-10.80,4.94,-0.58,2.13,1.70,
6.541,5.16,-10.80,4.94,-0.22,1.94,1.79,
6.545,5.43,-10.77,6.02,-0.22,1.94,1.79,
6.546,5.43,-10.77,6.02,0.28,1.66,1.89,
6.55,6.13,-11.02,6.06,0.28,1.66,1.89,
6.551,6.13,-11.02,6.06,0.87,1.36,2.02,
6.562,6.93,-11.30,5.07,0.87,1.36,2.02,
6.563,6.93,-11.30,5.07,1.50,1.09,2.14,
6.563,6.93,-11.30,5.07,2.08,0.86,2.25,
6.564,7.70,-11.42,3.32,2.08,0.86,2.25,
6.565,7.70,-11.42,3.32,2.56,0.70,2.35,
6.566,8.52,-11.36,1.12,2.56,0.70,2.35,
6.571,9.50,-11.39,-1.15,2.56,0.70,2.35,
6.572,9.50,-11.39,-1.15,2.90,0.61,2.43,
6.588,10.97,-11.65,-3.42,2.90,0.61,2.43,
6.59,10.97,-11.65,-3.42,3.10,0.59,2.49,
6.59,10.97,-11.65,-3.42,3.16,0.65,2.52,
6.591,12.90,-11.93,-5.78,3.16,0.65,2.52,
6.591,14.67,-12.13,-7.97,3.16,0.65,2.52,
6.591,14.67,-12.13,-7.97,3.09,0.78,2.47,
6.592,14.67,-12.13,-7.97,2.90,0.94,2.34,
6.592,15.70,-12.18,-9.88,2.90,0.94,2.34,
6.594,15.70,-12.18,-9.88,2.60,1.11,2.15,
6.595,15.65,-12.06,-11.08,2.60,1.11,2.15,
6.599,14.77,-11.94,-11.37,2.60,1.11,2.15,
6.6,14.77,-11.94,-11.37,2.25,1.24,1.96,
6.604,13.51,-12.04,-10.65,2.25,1.24,1.96,
6.605,13.51,-12.04,-10.65,1.89,1.33,1.81,
6.614,12.16,-12.26,-9.15,1.89,1.33,1.81,
6.615,12.16,-12.26,-9.15,1.60,1.40,1.75,
6.615,10.94,-12.47,-7.27,1.60,1.40,1.75,
6.616,10.94,-12.47,-7.27,1.41,1.43,1.77,
6.621,9.74,-12.54,-5.45,1.41,1.43,1.77,
6.622,9.74,-12.54,-5.45,1.36,1.42,1.87,
6.623,9.74,-12.54,-5.45,1.41,1.37,2.04,
6.623,8.74,-12.55,-4.03,1.41,1.37,2.04,
6.641,7.60,-12.81,-2.48,1.41,1.37,2.04,
6.641,7.60,-12.81,-2.48,1.57,1.31,2.29,
6.642,7.25,-12.89,-2.29,1.57,1.31,2.29,
6.642,7.25,-12.89,-2.29,1.80,1.29,2.61,
6.642,7.25,-12.89,-2.29,2.06,1.31,2.97,
6.643,8.40,-12.93,-3.58,2.06,1.31,2.97,
6.643,10.14,-13.30,-5.12,2.06,1.31,2.97,
6.643,10.14,-13.30,-5.12,2.26,1.36,3.31,
6.667,11.19,-13.94,-6.41,2.26,1.36,3.31,
6.668,11.19,-13.94,-6.41,2.37,1.44,3.58,
6.668,11.19,-13.94,-6.41,2.41,1.54,3.80,
6.668,11.53,-14.32,-7.42,2.41,1.54,3.80,
6.669,11.53,-14.32,-7.42,2.40,1.68,4.02,
6.669,11.73,-14.48,-7.95,2.40,1.68,4.02,
6.67,11.73,-14.48,-7.95,2.37,1.86,4.26,
6.67,12.28,-14.69,-8.06,2.37,1.86,4.26,
6.671,12.28,-14.69,-8.06,2.32,2.04,4.50,
6.671,13.16,-15.02,-8.10,2.32,2.04,4.50,
6.69,13.16,-15.02,-8.10,2.28,2.22,4.72,
6.691,14.16,-15.41,-8.17,2.28,2.22,4.72,
6.692,14.16,-15.41,-8.17,2.26,2.37,4.91,
6.692,15.43,-15.56,-8.35,2.26,2.37,4.91,
6.693,15.43,-15.56,-8.35,2.26,2.47,5.08,
6.693,16.86,-15.43,-8.65,2.26,2.47,5.08,
6.694,18.11,-15.34,-9.08,2.26,2.47,5.08,
6.694,18.11,-15.34,-9.08,2.28,2.54,5.20,
6.695,18.11,-15.34,-9.08,2.32,2.58,5.27,
6.695,19.19,-15.47,-9.36,2.32,2.58,5.27,
6.732,19.19,-15.47,-9.36,2.37,2.58,5.32,
6.733,20.02,-15.57,-9.24,2.37,2.58,5.32,
6.733,20.48,-15.66,-8.86,2.37,2.58,5.32,
6.734,20.48,-15.66,-8.86,2.44,2.52,5.34,
6.734,20.74,-15.71,-8.41,2.44,2.52,5.34,
6.735,20.74,-15.71,-8.41,2.55,2.41,5.35,
6.735,21.00,-15.85,-7.96,2.55,2.41,5.35,
6.736,21.00,-15.85,-7.96,2.70,2.28,5.39,
6.736,21.32,-16.12,-7.61,2.70,2.28,5.39,
6.737,21.32,-16.12,-7.61,2.91,2.13,5.45,
6.737,21.55,-16.49,-7.35,2.91,2.13,5.45,
6.738,21.55,-16.49,-7.35,3.14,1.98,5.51,
6.738,21.55,-16.49,-7.35,3.40,1.84,5.58,
6.738,21.55,-16.82,-7.15,3.40,1.84,5.58,
6.739,21.50,-17.09,-7.08,3.40,1.84,5.58,
6.766,21.50,-17.09,-7.08,3.65,1.74,5.67,
6.766,21.50,-17.09,-7.08,3.89,1.66,5.77,
6.767,21.67,-17.46,-7.18,3.89,1.66,5.77,
6.767,22.09,-18.00,-7.56,3.89,1.66,5.77,
6.768,22.09,-18.00,-7.56,4.10,1.65,5.89,
6.768,22.66,-18.53,-8.15,4.10,1.65,5.89,
6.769,22.66,-18.53,-8.15,4.26,1.72,6.03,
6.769,23.29,-18.97,-8.85,4.26,1.72,6.03,
6.77,23.29,-18.97,-8.85,4.37,1.85,6.18,
6.77,23.29,-18.97,-8.85,4.41,2.03,6.31,
6.771,23.94,-19.23,-9.65,4.41,2.03,6.31,
6.771,23.94,-19.23,-9.65,4.38,2.22,6.43,
6.771,24.67,-19.35,-10.52,4.38,2.22,6.43,
6.772,25.64,-19.46,-11.37,4.38,2.22,6.43,
6.773,25.64,-19.46,-11.37,4.30,2.43,6.53,
6.773,25.64,-19.46,-11.37,4.17,2.64,6.61,
6.774,26.50,-19.70,-11.97,4.17,2.64,6.61,
6.778,26.50,-19.70,-11.97,4.00,2.85,6.67,
6.779,26.90,-19.91,-12.49,4.00,2.85,6.67,
6.78,26.90,-19.91,-12.49,3.80,3.04,6.71,
6.78,26.85,-20.08,-12.79,3.80,3.04,6.71,
6.795,26.85,-20.08,-12.79,3.60,3.21,6.78,
6.796,26.72,-20.06,-12.77,3.60,3.21,6.78,
6.796,26.72,-20.06,-12.77,3.43,3.33,6.86,
6.797,26.89,-19.98,-12.40,3.43,3.33,6.86,
6.797,27.57,-19.90,-11.60,3.43,3.33,6.86,
6.798,27.57,-19.90,-11.60,3.31,3.33,6.96,
6.8,28.59,-19.78,-10.38,3.31,3.33,6.96,
6.801,28.59,-19.78,-10.38,3.30,3.19,7.04,
6.804,29.53,-19.64,-8.92,3.30,3.19,7.04,
6.804,29.53,-19.64,-8.92,3.41,2.93,7.08,
6.814,30.52,-19.33,-7.42,3.41,2.93,7.08,
6.815,30.52,-19.33,-7.42,3.66,2.58,7.08,
6.816,30.52,-19.33,-7.42,4.05,2.21,7.04,
6.816,31.68,-18.93,-5.97,4.05,2.21,7.04,
6.821,31.68,-18.93,-5.97,4.57,1.86,6.94,
6.821,33.03,-18.58,-4.87,4.57,1.86,6.94,
6.844,33.03,-18.58,-4.87,5.20,1.59,6.78,
6.845,34.49,-18.22,-4.37,5.20,1.59,6.78,
6.845,34.49,-18.22,-4.37,5.88,1.43,6.56,
6.846,35.72,-18.06,-5.02,5.88,1.43,6.56,
6.846,36.97,-17.35,-6.20,5.88,1.43,6.56,
6.847,36.97,-17.35,-6.20,6.54,1.38,6.30,
6.847,38.00,-16.86,-7.73,6.54,1.38,6.30,
6.848,38.00,-16.86,-7.73,7.17,1.48,6.00,
6.848,38.18,-16.75,-9.83,7.17,1.48,6.00,
6.849,38.18,-16.75,-9.83,7.74,1.68,5.66,
6.849,37.58,-16.60,-12.16,7.74,1.68,5.66,
6.85,37.58,-16.60,-12.16,8.19,1.89,5.34,
6.852,37.58,-16.60,-12.16,8.51,2.14,5.07,
6.853,36.76,-16.16,-14.65,8.51,2.14,5.07,
6.858,36.76,-16.16,-14.65,8.73,2.39,4.87,
6.859,36.08,-15.63,-16.60,8.73,2.39,4.87,
6.862,35.43,-14.84,-18.13,8.73,2.39,4.87,
6.863,35.43,-14.84,-18.13,8.85,2.61,4.72,
6.867,34.80,-13.81,-19.27,8.85,2.61,4.72,
6.868,34.80,-13.81,-19.27,8.91,2.75,4.61,
6.872,34.15,-12.57,-19.99,8.91,2.75,4.61,
6.872,34.15,-12.57,-19.99,8.93,2.83,4.53,
6.879,34.15,-12.57,-19.99,8.94,2.85,4.46,
6.88,33.58,-11.45,-20.19,8.94,2.85,4.46,
6.882,33.58,-11.45,-20.19,8.98,2.81,4.40,
6.882,33.22,-10.51,-20.02,8.98,2.81,4.40,
6.886,33.22,-10.51,-20.02,9.07,2.71,4.33,
6.887,33.04,-9.60,-19.88,9.07,2.71,4.33,
6.905,33.04,-9.60,-19.88,9.19,2.55,4.24,
6.906,32.93,-8.67,-19.91,9.19,2.55,4.24,
6.907,33.01,-7.82,-20.72,9.19,2.55,4.24,
6.908,33.01,-7.82,-20.72,9.35,2.34,4.10,
6.908,33.01,-7.82,-20.72,9.50,2.12,3.92,
6.909,33.35,-7.02,-22.13,9.50,2.12,3.92,
6.909,33.35,-7.02,-22.13,9.58,1.96,3.67,
6.909,33.69,-6.37,-24.21,9.58,1.96,3.67,
6.912,33.69,-6.37,-24.21,9.55,1.90,3.36,
6.912,34.01,-5.90,-26.59,9.55,1.90,3.36,
6.916,34.01,-5.90,-26.59,9.37,1.95,3.00,
6.917,34.12,-5.56,-28.98,9.37,1.95,3.00,
6.921,33.35,-5.22,-31.06,9.37,1.95,3.00,
6.921,33.35,-5.22,-31.06,9.04,2.13,2.59,
6.926,31.23,-4.75,-32.53,9.04,2.13,2.59,
6.927,31.23,-4.75,-32.53,8.55,2.43,2.18,
6.931,28.15,-4.35,-32.76,8.55,2.43,2.18,
6.932,28.15,-4.35,-32.76,7.94,2.81,1.83,
6.935,24.64,-4.03,-32.68,7.94,2.81,1.83,
6.936,24.64,-4.03,-32.68,7.25,3.17,1.59,
6.941,21.16,-3.75,-32.64,7.25,3.17,1.59,
6.942,21.16,-3.75,-32.64,6.52,3.45,1.49,
6.945,18.24,-3.53,-31.59,6.52,3.45,1.49,
6.946,18.24,-3.53,-31.59,5.81,3.66,1.51,
6.95,15.76,-3.34,-30.49,5.81,3.66,1.51,
6.951,15.76,-3.34,-30.49,5.13,3.81,1.64,
6.955,13.67,-3.23,-29.31,5.13,3.81,1.64,
6.955,13.67,-3.23,-29.31,4.48,3.90,1.85,
6.96,13.67,-3.23,-29.31,3.87,3.93,2.12,
6.961,12.23,-2.96,-27.87,3.87,3.93,2.12,
6.965,12.23,-2.96,-27.87,3.30,3.95,2.42,
6.965,11.51,-2.40,-25.93,3.30,3.95,2.42,
6.97,11.51,-2.40,-25.93,2.81,4.02,2.72,
6.971,11.39,-1.66,-23.39,2.81,4.02,2.72,
6.984,11.95,-0.82,-21.07,2.81,4.02,2.72,
7.031,11.95,-0.82,-21.07,2.42,4.13,3.01,
7.031,11.95,-0.82,-21.07,2.16,4.22,3.25,
7.031,12.88,0.02,-19.16,2.16,4.22,3.25,
7.032,14.05,0.79,-18.10,2.16,4.22,3.25,
7.032,14.05,0.79,-18.10,2.00,4.21,3.44,
7.032,14.05,0.79,-18.10,1.93,4.08,3.57,
7.033,15.44,1.48,-17.73,1.93,4.08,3.57,
7.033,16.98,2.11,-17.83,1.93,4.08,3.57,
7.033,16.98,2.11,-17.83,1.90,3.88,3.65,
7.034,16.98,2.11,-17.83,1.86,3.65,3.66,
7.034,18.72,3.05,-18.33,1.86,3.65,3.66,
7.035,18.72,3.05,-18.33,1.79,3.42,3.60,
7.035,20.42,4.24,-19.10,1.79,3.42,3.60,
7.035,21.84,5.23,-20.06,1.79,3.42,3.60,
7.036,21.84,5.23,-20.06,1.68,3.24,3.45,
7.036,22.49,5.88,-20.84,1.68,3.24,3.45,
7.037,22.49,5.88,-20.84,1.51,3.12,3.23,
7.037,22.09,6.24,-21.32,1.51,3.12,3.23,
7.037,22.09,6.24,-21.32,1.28,3.04,2.97,
7.038,20.75,6.32,-21.45,1.28,3.04,2.97,
7.038,20.75,6.32,-21.45,0.99,2.96,2.71,
7.039,18.73,6.21,-20.98,0.99,2.96,2.71,
7.039,18.73,6.21,-20.98,0.65,2.90,2.51,
7.039,16.67,6.04,-20.02,0.65,2.90,2.51,
7.04,16.67,6.04,-20.02,0.29,2.87,2.38,
7.04,14.55,6.00,-18.77,0.29,2.87,2.38,
7.041,14.55,6.00,-18.77,-0.07,2.87,2.34,
7.046,12.45,5.93,-17.00,-0.07,2.87,2.34,
7.047,12.45,5.93,-17.00,-0.40,2.89,2.35,
7.048,10.96,5.78,-14.96,-0.40,2.89,2.35,
7.049,10.96,5.78,-14.96,-0.69,2.89,2.43,
7.052,10.56,5.75,-12.86,-0.69,2.89,2.43,
7.053,10.56,5.75,-12.86,-0.89,2.84,2.57,
7.058,11.17,5.94,-10.84,-0.89,2.84,2.57,
7.059,11.17,5.94,-10.84,-1.02,2.74,2.74,
7.062,12.42,6.38,-9.03,-1.02,2.74,2.74,
7.063,12.42,6.38,-9.03,-1.04,2.63,2.89,
7.067,12.42,6.38,-9.03,-0.95,2.51,2.99,
7.068,13.78,7.04,-7.61,-0.95,2.51,2.99,
7.072,15.25,7.81,-6.80,-0.95,2.51,2.99,
7.073,15.25,7.81,-6.80,-0.77,2.43,3.02,
7.085,15.25,7.81,-6.80,-0.52,2.35,3.01,
7.085,16.89,8.59,-6.68,-0.52,2.35,3.01,
7.086,16.89,8.59,-6.68,-0.23,2.26,2.91,
7.086,18.67,9.41,-7.34,-0.23,2.26,2.91,
7.088,18.67,9.41,-7.34,0.04,2.11,2.73,
7.089,20.21,10.37,-8.73,0.04,2.11,2.73,
7.114,20.21,10.37,-8.73,0.29,1.87,2.45,
7.115,21.27,11.39,-10.66,0.29,1.87,2.45,
7.115,21.27,11.39,-10.66,0.49,1.55,2.09,
7.116,21.81,12.03,-12.40,0.49,1.55,2.09,
7.116,21.81,12.03,-12.40,0.63,1.18,1.67,
7.116,21.71,12.43,-13.76,0.63,1.18,1.67,
7.117,20.92,12.80,-14.84,0.63,1.18,1.67,
7.117,20.92,12.80,-14.84,0.70,0.76,1.22,
7.118,19.32,13.03,-15.52,0.70,0.76,1.22,
7.118,19.32,13.03,-15.52,0.72,0.33,0.76,
7.119,16.92,13.01,-15.77,0.72,0.33,0.76,
7.119,16.92,13.01,-15.77,0.66,-0.07,0.33,
7.122,14.16,12.57,-15.62,0.66,-0.07,0.33,
7.122,14.16,12.57,-15.62,0.55,-0.38,-0.05,
7.126,14.16,12.57,-15.62,0.39,-0.59,-0.32,
7.127,11.36,11.85,-15.06,0.39,-0.59,-0.32,
7.131,11.36,11.85,-15.06,0.20,-0.68,-0.48,
7.131,8.64,11.07,-14.31,0.20,-0.68,-0.48,
7.135,8.64,11.07,-14.31,-0.02,-0.68,-0.53,
7.136,6.54,10.22,-13.27,-0.02,-0.68,-0.53,
7.149,5.44,9.26,-12.08,-0.02,-0.68,-0.53,
7.15,5.44,9.26,-12.08,-0.25,-0.63,-0.50,
7.151,5.44,9.26,-12.08,-0.45,-0.52,-0.41,
7.151,4.98,8.35,-10.77,-0.45,-0.52,-0.41,
7.152,4.50,7.83,-9.44,-0.45,-0.52,-0.41,
7.152,4.50,7.83,-9.44,-0.61,-0.37,-0.30,
7.154,4.50,7.83,-9.44,-0.72,-0.16,-0.19,
7.155,4.13,7.51,-8.21,-0.72,-0.16,-0.19,
7.181,4.13,7.51,-8.21,-0.79,0.05,-0.08,
7.182,3.80,7.39,-7.01,-0.79,0.05,-0.08,
7.182,3.80,7.39,-7.01,-0.80,0.25,0.01,
7.183,3.41,7.36,-5.88,-0.80,0.25,0.01,
7.183,3.05,7.37,-4.75,-0.80,0.25,0.01,
7.183,3.05,7.37,-4.75,-0.75,0.42,0.11,
7.184,2.91,7.17,-3.51,-0.75,0.42,0.11,
7.184,2.91,7.17,-3.51,-0.64,0.57,0.20,
