
time,ax,ay,az,wx,wy,wz,
0.002,0.49,1.05,-0.74,-0.65,-1.03,0.25,
0.003,0.49,1.05,-0.74,-0.66,-1.03,0.20,
0.003,0.63,1.01,-0.63,-0.66,-1.03,0.20,
0.004,0.63,1.01,-0.63,-0.68,-1.01,0.14,
0.007,0.66,0.95,-0.60,-0.68,-1.01,0.14,
0.008,0.66,0.95,-0.60,-0.70,-0.97,0.08,
0.009,0.70,0.93,-0.54,-0.70,-0.97,0.08,
0.01,0.70,0.93,-0.54,-0.73,-0.92,0.01,
0.017,0.70,0.93,-0.54,-0.76,-0.86,-0.05,
0.018,0.74,0.93,-0.31,-0.76,-0.86,-0.05,
0.019,0.74,0.93,-0.31,-0.79,-0.79,-0.11,
0.02,0.81,0.93,-0.03,-0.79,-0.79,-0.11,
0.024,0.81,0.93,-0.03,-0.81,-0.73,-0.18,
0.025,0.83,0.85,0.12,-0.81,-0.73,-0.18,
0.032,0.86,0.73,0.18,-0.81,-0.73,-0.18,
0.032,0.86,0.73,0.18,-0.82,-0.67,-0.23,
0.034,0.86,0.73,0.18,-0.84,-0.62,-0.29,
0.034,0.89,0.60,0.18,-0.84,-0.62,-0.29,
0.039,0.89,0.60,0.18,-0.86,-0.57,-0.34,
0.039,0.83,0.42,0.24,-0.86,-0.57,-0.34,
0.044,0.74,0.32,0.31,-0.86,-0.57,-0.34,
0.045,0.74,0.32,0.31,-0.87,-0.52,-0.39,
0.049,0.74,0.32,0.31,-0.89,-0.48,-0.42,
0.049,0.60,0.22,0.46,-0.89,-0.48,-0.42,
0.053,0.60,0.22,0.46,-0.91,-0.43,-0.45,
0.054,0.47,0.11,0.66,-0.91,-0.43,-0.45,
0.058,0.47,0.11,0.66,-0.92,-0.39,-0.47,
0.059,0.32,0.01,0.90,-0.92,-0.39,-0.47,
0.064,0.21,-0.12,1.11,-0.92,-0.39,-0.47,
0.065,0.21,-0.12,1.11,-0.92,-0.34,-0.48,
0.068,0.10,-0.21,1.27,-0.92,-0.34,-0.48,
0.069,0.10,-0.21,1.27,-0.90,-0.29,-0.48,
0.073,0.02,-0.32,1.35,-0.90,-0.29,-0.48,
0.074,0.02,-0.32,1.35,-0.87,-0.25,-0.48,
0.079,-0.09,-0.40,1.37,-0.87,-0.25,-0.48,
0.08,-0.09,-0.40,1.37,-0.83,-0.22,-0.47,
0.083,-0.17,-0.41,1.21,-0.83,-0.22,-0.47,
0.083,-0.17,-0.41,1.21,-0.80,-0.19,-0.46,
0.088,-0.32,-0.43,1.03,-0.80,-0.19,-0.46,
0.089,-0.32,-0.43,1.03,-0.75,-0.17,-0.45,
0.092,-0.48,-0.41,0.83,-0.75,-0.17,-0.45,
0.093,-0.48,-0.41,0.83,-0.71,-0.16,-0.43,
0.098,-0.60,-0.35,0.63,-0.71,-0.16,-0.43,
0.099,-0.60,-0.35,0.63,-0.68,-0.16,-0.40,
0.102,-0.66,-0.36,0.40,-0.68,-0.16,-0.40,
0.103,-0.66,-0.36,0.40,-0.65,-0.18,-0.38,
0.107,-0.66,-0.36,0.40,-0.63,-0.20,-0.34,
0.108,-0.70,-0.34,0.23,-0.63,-0.20,-0.34,
0.123,-0.70,-0.34,0.23,-0.61,-0.23,-0.30,
0.124,-0.70,-0.29,0.14,-0.61,-0.23,-0.30,
0.124,-0.65,-0.23,0.05,-0.61,-0.23,-0.30,
0.125,-0.65,-0.23,0.05,-0.59,-0.29,-0.27,
0.125,-0.65,-0.23,0.05,-0.57,-0.37,-0.24,
0.126,-0.51,-0.18,-0.01,-0.57,-0.37,-0.24,
0.127,-0.29,-0.11,0.01,-0.57,-0.37,-0.24,
0.128,-0.29,-0.11,0.01,-0.54,-0.46,-0.22,
0.152,-0.29,-0.11,0.01,-0.52,-0.55,-0.21,
0.153,-0.07,0.00,0.11,-0.52,-0.55,-0.21,
0.153,-0.07,0.00,0.11,-0.49,-0.65,-0.21,
0.154,0.13,0.08,0.20,-0.49,-0.65,-0.21,
0.154,0.13,0.08,0.20,-0.45,-0.74,-0.22,
0.155,0.28,0.16,0.31,-0.45,-0.74,-0.22,
0.155,0.28,0.16,0.31,-0.41,-0.83,-0.24,
0.156,0.32,0.14,0.37,-0.41,-0.83,-0.24,
0.157,0.30,0.11,0.43,-0.41,-0.83,-0.24,
0.157,0.30,0.11,0.43,-0.36,-0.90,-0.27,
0.158,0.30,0.11,0.43,-0.32,-0.97,-0.30,
0.158,0.30,0.04,0.38,-0.32,-0.97,-0.30,
0.163,0.30,0.04,0.38,-0.28,-1.01,-0.33,
0.164,0.24,-0.03,0.35,-0.28,-1.01,-0.33,
0.166,0.24,-0.03,0.35,-0.25,-1.04,-0.36,
0.178,0.15,-0.11,0.26,-0.25,-1.04,-0.36,
0.179,0.15,-0.11,0.26,-0.22,-1.06,-0.38,
0.179,0.02,-0.14,0.13,-0.22,-1.06,-0.38,
0.18,-0.11,-0.16,-0.07,-0.22,-1.06,-0.38,
0.18,-0.11,-0.16,-0.07,-0.21,-1.05,-0.39,
0.181,-0.11,-0.16,-0.07,-0.21,-1.04,-0.39,
0.181,-0.26,-0.11,-0.23,-0.21,-1.04,-0.39,
0.19,-0.47,-0.09,-0.34,-0.21,-1.04,-0.39,
0.191,-0.47,-0.09,-0.34,-0.23,-1.02,-0.38,
0.191,-0.63,-0.07,-0.45,-0.23,-1.02,-0.38,
0.192,-0.63,-0.07,-0.45,-0.26,-0.97,-0.36,
0.196,-0.77,-0.01,-0.48,-0.26,-0.97,-0.36,
0.196,-0.77,-0.01,-0.48,-0.31,-0.89,-0.34,
0.2,-0.79,0.11,-0.49,-0.31,-0.89,-0.34,
0.2,-0.79,0.11,-0.49,-0.36,-0.80,-0.30,
0.205,-0.78,0.23,-0.53,-0.36,-0.80,-0.30,
0.205,-0.78,0.23,-0.53,-0.42,-0.70,-0.26,
0.21,-0.76,0.36,-0.54,-0.42,-0.70,-0.26,
0.21,-0.76,0.36,-0.54,-0.50,-0.59,-0.22,
0.221,-0.67,0.48,-0.41,-0.50,-0.59,-0.22,
0.222,-0.67,0.48,-0.41,-0.59,-0.46,-0.18,
0.222,-0.52,0.62,-0.19,-0.59,-0.46,-0.18,
0.223,-0.52,0.62,-0.19,-0.69,-0.31,-0.13,
0.225,-0.52,0.62,-0.19,-0.80,-0.13,-0.10,
0.225,-0.34,0.66,0.06,-0.80,-0.13,-0.10,
0.23,-0.34,0.66,0.06,-0.91,0.05,-0.08,
0.231,-0.15,0.74,0.36,-0.91,0.05,-0.08,
0.234,-0.15,0.74,0.36,-1.01,0.24,-0.06,
0.234,0.00,0.82,0.75,-1.01,0.24,-0.06,
0.239,0.16,0.85,1.17,-1.01,0.24,-0.06,
0.239,0.16,0.85,1.17,-1.10,0.42,-0.05,
0.244,0.16,0.85,1.17,-1.17,0.58,-0.05,
0.244,0.26,0.92,1.59,-1.17,0.58,-0.05,
0.249,0.26,0.92,1.59,-1.21,0.73,-0.06,
0.25,0.25,0.93,1.96,-1.21,0.73,-0.06,
0.254,0.21,0.94,2.30,-1.21,0.73,-0.06,
0.254,0.21,0.94,2.30,-1.22,0.84,-0.07,
0.258,0.11,0.87,2.54,-1.22,0.84,-0.07,
0.259,0.11,0.87,2.54,-1.20,0.91,-0.08,
0.263,0.12,0.88,2.80,-1.20,0.91,-0.08,
0.264,0.12,0.88,2.80,-1.15,0.93,-0.08,
0.268,0.08,0.92,2.96,-1.15,0.93,-0.08,
0.269,0.08,0.92,2.96,-1.08,0.91,-0.10,
0.273,0.16,0.92,3.06,-1.08,0.91,-0.10,
0.274,0.16,0.92,3.06,-0.98,0.84,-0.11,
0.288,0.20,0.97,3.02,-0.98,0.84,-0.11,
0.289,0.20,0.97,3.02,-0.87,0.73,-0.12,
0.289,0.20,0.97,3.02,-0.73,0.60,-0.14,
0.29,0.27,0.97,2.86,-0.73,0.60,-0.14,
0.29,0.27,1.01,2.54,-0.73,0.60,-0.14,
0.29,0.27,1.01,2.54,-0.60,0.44,-0.17,
0.293,0.27,1.01,2.54,-0.48,0.28,-0.20,
0.293,0.19,0.94,2.20,-0.48,0.28,-0.20,
0.297,0.19,0.94,2.20,-0.36,0.12,-0.23,
0.298,0.06,0.92,1.92,-0.36,0.12,-0.23,
0.302,-0.10,0.89,1.72,-0.36,0.12,-0.23,
0.303,-0.10,0.89,1.72,-0.26,-0.04,-0.25,
0.307,-0.22,0.84,1.52,-0.26,-0.04,-0.25,
0.308,-0.22,0.84,1.52,-0.16,-0.17,-0.26,
0.313,-0.34,0.76,1.36,-0.16,-0.17,-0.26,
0.314,-0.34,0.76,1.36,-0.06,-0.30,-0.27,
0.318,-0.39,0.73,1.23,-0.06,-0.30,-0.27,
0.318,-0.39,0.73,1.23,0.03,-0.41,-0.27,
0.322,-0.36,0.69,1.06,0.03,-0.41,-0.27,
0.322,-0.36,0.69,1.06,0.12,-0.52,-0.26,
0.326,-0.28,0.68,0.91,0.12,-0.52,-0.26,
0.327,-0.28,0.68,0.91,0.21,-0.61,-0.25,
0.332,-0.23,0.69,0.70,0.21,-0.61,-0.25,
0.333,-0.23,0.69,0.70,0.30,-0.66,-0.25,
0.336,-0.23,0.69,0.70,0.37,-0.70,-0.24,
0.337,-0.25,0.64,0.40,0.37,-0.70,-0.24,
0.341,-0.30,0.65,0.07,0.37,-0.70,-0.24,
0.342,-0.30,0.65,0.07,0.44,-0.72,-0.23,
0.356,-0.30,0.65,0.07,0.49,-0.73,-0.22,
0.357,-0.37,0.67,-0.24,0.49,-0.73,-0.22,
0.357,-0.37,0.67,-0.24,0.53,-0.74,-0.20,
0.357,-0.42,0.71,-0.51,0.53,-0.74,-0.20,
0.358,-0.42,0.71,-0.51,0.55,-0.73,-0.18,
0.358,-0.41,0.75,-0.77,0.55,-0.73,-0.18,
0.362,-0.41,0.75,-0.77,0.58,-0.73,-0.16,
0.363,-0.37,0.80,-1.01,0.58,-0.73,-0.16,
0.407,-0.37,0.80,-1.01,0.58,-0.72,-0.15,
0.407,-0.27,0.84,-1.24,0.58,-0.72,-0.15,
0.408,-0.27,0.84,-1.24,0.57,-0.72,-0.13,
0.408,-0.17,0.85,-1.44,0.57,-0.72,-0.13,
0.409,-0.17,0.85,-1.44,0.55,-0.71,-0.12,
0.409,-0.13,0.85,-1.56,0.55,-0.71,-0.12,
0.409,-0.02,0.82,-1.65,0.55,-0.71,-0.12,
0.41,-0.02,0.82,-1.65,0.51,-0.69,-0.11,
0.41,-0.02,0.82,-1.65,0.48,-0.68,-0.10,
0.411,0.01,0.78,-1.62,0.48,-0.68,-0.10,
0.411,0.01,0.78,-1.62,0.44,-0.66,-0.10,
0.412,0.09,0.74,-1.58,0.44,-0.66,-0.10,
0.412,0.18,0.71,-1.57,0.44,-0.66,-0.10,
0.412,0.18,0.71,-1.57,0.41,-0.65,-0.10,
0.413,0.18,0.71,-1.57,0.38,-0.65,-0.10,
0.413,0.22,0.63,-1.59,0.38,-0.65,-0.10,
0.413,0.23,0.50,-1.64,0.38,-0.65,-0.10,
0.414,0.23,0.50,-1.64,0.36,-0.67,-0.09,
0.414,0.23,0.39,-1.63,0.36,-0.67,-0.09,
0.442,0.23,0.39,-1.63,0.32,-0.69,-0.09,
0.442,0.23,0.29,-1.56,0.32,-0.69,-0.09,
0.443,0.23,0.29,-1.56,0.29,-0.72,-0.08,
0.443,0.23,0.29,-1.56,0.27,-0.72,-0.07,
0.443,0.27,0.17,-1.51,0.27,-0.72,-0.07,
0.444,0.27,0.17,-1.51,0.24,-0.73,-0.06,
0.444,0.26,0.08,-1.44,0.24,-0.73,-0.06,
0.445,0.23,-0.03,-1.40,0.24,-0.73,-0.06,
0.445,0.23,-0.03,-1.40,0.23,-0.73,-0.05,
0.445,0.23,-0.03,-1.40,0.23,-0.73,-0.04,
0.446,0.24,-0.09,-1.42,0.23,-0.73,-0.04,
0.446,0.21,-0.17,-1.50,0.23,-0.73,-0.04,
0.447,0.21,-0.17,-1.50,0.23,-0.73,-0.03,
0.447,0.21,-0.17,-1.50,0.22,-0.72,-0.02,
0.447,0.15,-0.25,-1.62,0.22,-0.72,-0.02,
0.454,0.10,-0.38,-1.81,0.22,-0.72,-0.02,
0.455,0.10,-0.38,-1.81,0.22,-0.71,-0.00,
0.456,0.10,-0.38,-1.81,0.22,-0.69,0.02,
0.457,0.01,-0.47,-1.93,0.22,-0.69,0.02,
0.464,0.01,-0.47,-1.93,0.21,-0.68,0.04,
0.464,-0.04,-0.56,-2.09,0.21,-0.68,0.04,
0.465,-0.10,-0.65,-2.25,0.21,-0.68,0.04,
0.465,-0.10,-0.65,-2.25,0.20,-0.65,0.07,
0.471,-0.10,-0.65,-2.25,0.19,-0.63,0.10,
0.471,-0.15,-0.75,-2.42,0.19,-0.63,0.10,
0.473,-0.15,-0.75,-2.42,0.18,-0.61,0.13,
0.473,-0.17,-0.82,-2.67,0.18,-0.61,0.13,
0.478,-0.22,-0.85,-2.91,0.18,-0.61,0.13,
0.478,-0.22,-0.85,-2.91,0.16,-0.59,0.16,
0.487,-0.22,-0.83,-3.11,0.16,-0.59,0.16,
0.488,-0.22,-0.83,-3.11,0.15,-0.57,0.19,
0.488,-0.21,-0.85,-3.44,0.15,-0.57,0.19,
0.488,-0.21,-0.85,-3.44,0.12,-0.54,0.21,
0.492,-0.30,-0.89,-3.75,0.12,-0.54,0.21,
0.493,-0.30,-0.89,-3.75,0.08,-0.50,0.24,
0.498,-0.44,-0.93,-4.04,0.08,-0.50,0.24,
0.498,-0.44,-0.93,-4.04,0.01,-0.44,0.26,
0.502,-0.44,-0.93,-4.04,-0.07,-0.37,0.28,
0.503,-0.58,-1.05,-4.24,-0.07,-0.37,0.28,
0.507,-0.65,-1.14,-4.39,-0.07,-0.37,0.28,
0.508,-0.65,-1.14,-4.39,-0.16,-0.29,0.30,
0.513,-0.65,-1.14,-4.39,-0.26,-0.19,0.33,
0.514,-0.68,-1.26,-4.48,-0.26,-0.19,0.33,
0.517,-0.70,-1.28,-4.43,-0.26,-0.19,0.33,
0.518,-0.70,-1.28,-4.43,-0.36,-0.09,0.36,
0.522,-0.72,-1.25,-4.39,-0.36,-0.09,0.36,
0.522,-0.72,-1.25,-4.39,-0.46,0.03,0.38,
0.527,-0.74,-1.27,-4.33,-0.46,0.03,0.38,
0.527,-0.74,-1.27,-4.33,-0.56,0.15,0.40,
0.531,-0.74,-1.27,-4.33,-0.65,0.28,0.42,
0.532,-0.93,-1.27,-4.22,-0.65,0.28,0.42,
0.536,-1.13,-1.23,-4.13,-0.65,0.28,0.42,
0.537,-1.13,-1.23,-4.13,-0.73,0.39,0.43,
0.541,-1.43,-1.20,-4.09,-0.73,0.39,0.43,
0.542,-1.43,-1.20,-4.09,-0.79,0.48,0.44,
0.557,-1.43,-1.20,-4.09,-0.84,0.54,0.46,
0.559,-1.63,-1.13,-4.10,-0.84,0.54,0.46,
0.559,-1.63,-1.13,-4.10,-0.88,0.58,0.48,
0.56,-1.69,-1.08,-4.13,-0.88,0.58,0.48,
0.56,-1.69,-1.08,-4.13,-0.91,0.59,0.52,
0.561,-1.52,-1.01,-4.19,-0.91,0.59,0.52,
0.562,-1.52,-1.01,-4.19,-0.93,0.57,0.55,
0.562,-1.30,-0.96,-4.29,-0.93,0.57,0.55,
0.587,-1.09,-0.86,-4.42,-0.93,0.57,0.55,
0.588,-1.09,-0.86,-4.42,-0.95,0.52,0.56,
0.588,-1.09,-0.86,-4.42,-0.96,0.46,0.56,
0.589,-0.89,-0.74,-4.66,-0.96,0.46,0.56,
0.589,-0.89,-0.74,-4.66,-0.98,0.35,0.54,
0.59,-0.77,-0.65,-4.91,-0.98,0.35,0.54,
0.59,-0.75,-0.64,-5.17,-0.98,0.35,0.54,
0.591,-0.75,-0.64,-5.17,-1.01,0.22,0.51,
0.591,-0.75,-0.64,-5.17,-1.06,0.06,0.48,
0.592,-0.91,-0.69,-5.38,-1.06,0.06,0.48,
0.592,-0.91,-0.69,-5.38,-1.14,-0.12,0.45,
0.593,-1.11,-0.75,-5.51,-1.14,-0.12,0.45,
0.596,-1.28,-0.82,-5.45,-1.14,-0.12,0.45,
0.597,-1.28,-0.82,-5.45,-1.23,-0.31,0.43,
0.6,-1.33,-0.90,-5.25,-1.23,-0.31,0.43,
0.601,-1.33,-0.90,-5.25,-1.33,-0.49,0.42,
0.605,-1.25,-0.97,-4.78,-1.33,-0.49,0.42,
0.605,-1.25,-0.97,-4.78,-1.44,-0.67,0.42,
0.609,-1.25,-0.97,-4.78,-1.54,-0.84,0.42,
0.61,-1.01,-1.05,-4.11,-1.54,-0.84,0.42,
0.614,-1.01,-1.05,-4.11,-1.63,-1.02,0.42,
0.615,-0.69,-1.02,-3.26,-1.63,-1.02,0.42,
0.619,-0.61,-1.28,-2.28,-1.63,-1.02,0.42,
0.62,-0.61,-1.28,-2.28,-1.69,-1.22,0.41,
0.624,-0.49,-1.54,-1.29,-1.69,-1.22,0.41,
0.624,-0.49,-1.54,-1.29,-1.72,-1.43,0.41,
0.63,-0.49,-1.54,-1.29,-1.71,-1.66,0.41,
0.631,-0.50,-1.77,-0.18,-1.71,-1.66,0.41,
0.634,-0.56,-2.03,0.90,-1.71,-1.66,0.41,
0.634,-0.56,-2.03,0.90,-1.67,-1.89,0.42,
0.639,-0.54,-2.18,1.86,-1.67,-1.89,0.42,
0.639,-0.54,-2.18,1.86,-1.59,-2.11,0.45,
0.643,-0.50,-2.28,2.68,-1.59,-2.11,0.45,
0.644,-0.50,-2.28,2.68,-1.47,-2.29,0.49,
0.649,-0.50,-2.28,2.68,-1.33,-2.45,0.55,
0.65,-0.48,-2.38,3.30,-1.33,-2.45,0.55,
0.654,-0.48,-2.38,3.30,-1.19,-2.55,0.61,
0.694,-0.60,-2.45,3.73,-1.19,-2.55,0.61,
0.695,-0.69,-2.56,4.00,-1.19,-2.55,0.61,
0.696,-0.69,-2.56,4.00,-1.06,-2.57,0.67,
0.696,-0.58,-2.59,4.22,-1.06,-2.57,0.67,
0.697,-0.58,-2.59,4.22,-0.95,-2.52,0.75,
0.697,-0.58,-2.59,4.22,-0.85,-2.41,0.84,
0.698,-0.34,-2.57,4.38,-0.85,-2.41,0.84,
0.698,-0.34,-2.57,4.38,-0.76,-2.22,0.92,
0.699,-0.09,-2.51,4.64,-0.76,-2.22,0.92,
0.699,-0.09,-2.51,4.64,-0.67,-1.99,1.01,
0.7,0.20,-2.42,4.99,-0.67,-1.99,1.01,
0.7,0.51,-2.28,5.14,-0.67,-1.99,1.01,
0.701,0.51,-2.28,5.14,-0.56,-1.76,1.07,
0.701,0.51,-2.28,5.14,-0.43,-1.55,1.13,
0.702,0.94,-2.03,5.07,-0.43,-1.55,1.13,
0.703,0.94,-2.03,5.07,-0.28,-1.38,1.16,
0.703,1.42,-1.72,4.70,-0.28,-1.38,1.16,
0.703,1.42,-1.72,4.70,-0.15,-1.25,1.18,
0.704,1.85,-1.34,4.07,-0.15,-1.25,1.18,
0.704,1.85,-1.34,4.07,-0.04,-1.16,1.16,
0.704,2.16,-1.03,3.41,-0.04,-1.16,1.16,
0.709,2.33,-0.76,2.77,-0.04,-1.16,1.16,
0.709,2.33,-0.76,2.77,0.05,-1.09,1.12,
0.721,2.33,-0.76,2.77,0.10,-1.03,1.07,
0.722,2.37,-0.56,2.13,0.10,-1.03,1.07,
0.722,2.37,-0.56,2.13,0.14,-0.99,1.01,
0.723,2.27,-0.42,1.41,0.14,-0.99,1.01,
0.723,2.27,-0.42,1.41,0.15,-0.96,0.95,
0.723,2.05,-0.37,0.80,0.15,-0.96,0.95,
0.727,1.80,-0.33,0.27,0.15,-0.96,0.95,
0.727,1.80,-0.33,0.27,0.15,-0.94,0.90,
0.732,1.50,-0.34,-0.10,0.15,-0.94,0.90,
0.732,1.50,-0.34,-0.10,0.14,-0.93,0.85,
0.736,1.50,-0.34,-0.10,0.13,-0.92,0.82,
0.737,1.08,-0.32,-0.36,0.13,-0.92,0.82,
0.741,0.70,-0.30,-0.56,0.13,-0.92,0.82,
0.741,0.70,-0.30,-0.56,0.13,-0.93,0.79,
0.747,0.70,-0.30,-0.56,0.15,-0.96,0.77,
0.748,0.34,-0.28,-0.64,0.15,-0.96,0.77,
0.751,3.05,0.04,-0.81,0.15,-0.96,0.77,
0.752,3.05,0.04,-0.81,0.19,-0.99,0.77,
0.756,3.28,0.34,-0.99,0.19,-0.99,0.77,
0.756,3.28,0.34,-0.99,0.23,-1.02,0.83,
0.761,3.28,0.34,-0.99,0.37,-1.35,0.80,
0.761,2.59,0.57,-1.02,0.37,-1.35,0.80,
0.766,2.59,0.57,-1.02,0.57,-1.60,0.69,
0.766,2.50,1.00,-1.86,0.57,-1.60,0.69,
0.771,2.50,1.00,-1.86,0.73,-1.70,0.56,
0.772,0.90,0.88,-2.50,0.73,-1.70,0.56,
0.775,-0.22,0.66,-2.96,0.73,-1.70,0.56,
0.776,-0.22,0.66,-2.96,0.83,-1.77,0.47,
0.791,-0.22,0.66,-2.96,0.89,-1.78,0.47,
0.792,-1.29,-0.09,-3.51,0.89,-1.78,0.47,
0.793,-1.29,-0.09,-3.51,0.90,-1.80,0.56,
0.793,-1.59,-0.56,-3.87,0.90,-1.80,0.56,
0.793,-1.94,-0.89,-4.48,0.90,-1.80,0.56,
0.794,-1.94,-0.89,-4.48,0.89,-1.81,0.68,
0.797,-1.94,-0.89,-4.48,0.85,-1.77,0.79,
0.797,-2.46,-1.27,-5.17,0.85,-1.77,0.79,
0.801,-2.46,-1.27,-5.17,0.77,-1.70,0.91,
0.802,-3.03,-1.65,-5.88,0.77,-1.70,0.91,
0.805,-3.03,-1.65,-5.88,0.67,-1.61,1.05,
0.805,-3.20,-1.92,-6.52,0.67,-1.61,1.05,
0.811,-3.20,-1.92,-6.52,0.54,-1.50,1.23,
0.812,-2.95,-2.12,-7.06,0.54,-1.50,1.23,
0.818,-2.45,-2.36,-7.58,0.54,-1.50,1.23,
0.819,-2.45,-2.36,-7.58,0.38,-1.38,1.41,
0.82,-1.70,-2.53,-8.06,0.38,-1.38,1.41,
0.82,-1.70,-2.53,-8.06,0.18,-1.21,1.58,
0.824,-0.74,-2.45,-8.34,0.18,-1.21,1.58,
0.825,-0.74,-2.45,-8.34,-0.04,-1.04,1.70,
0.83,-0.05,-2.43,-8.50,-0.04,-1.04,1.70,
0.831,-0.05,-2.43,-8.50,-0.26,-0.87,1.78,
0.834,-0.05,-2.43,-8.50,-0.49,-0.72,1.82,
0.835,0.61,-2.37,-8.51,-0.49,-0.72,1.82,
0.839,0.61,-2.37,-8.51,-0.70,-0.59,1.85,
0.839,1.34,-2.40,-8.39,-0.70,-0.59,1.85,
0.843,1.96,-2.46,-8.11,-0.70,-0.59,1.85,
0.844,1.96,-2.46,-8.11,-0.90,-0.50,1.84,
0.848,2.47,-2.56,-7.83,-0.90,-0.50,1.84,
0.849,2.47,-2.56,-7.83,-1.06,-0.45,1.80,
0.884,2.86,-2.77,-7.69,-1.06,-0.45,1.80,
0.885,2.86,-2.77,-7.69,-1.20,-0.45,1.73,
0.885,3.19,-3.05,-7.56,-1.20,-0.45,1.73,
0.886,3.19,-3.05,-7.56,-1.31,-0.50,1.65,
0.886,3.31,-3.42,-7.50,-1.31,-0.50,1.65,
0.887,3.31,-3.42,-7.50,-1.40,-0.57,1.56,
0.887,3.40,-3.71,-7.51,-1.40,-0.57,1.56,
0.888,3.40,-3.71,-7.51,-1.48,-0.66,1.48,
0.888,3.40,-3.86,-7.63,-1.48,-0.66,1.48,
0.888,3.40,-3.86,-7.63,-1.55,-0.77,1.39,
0.889,3.57,-3.92,-7.81,-1.55,-0.77,1.39,
0.889,3.57,-3.92,-7.81,-1.62,-0.88,1.32,
0.89,3.76,-3.96,-8.20,-1.62,-0.88,1.32,
0.89,3.76,-3.96,-8.20,-1.71,-0.97,1.24,
0.89,3.76,-3.96,-8.20,-1.80,-1.05,1.16,
0.891,3.98,-4.16,-8.55,-1.80,-1.05,1.16,
0.9,3.98,-4.16,-8.55,-1.92,-1.13,1.09,
0.901,4.11,-4.49,-8.90,-1.92,-1.13,1.09,
0.901,4.11,-4.49,-8.90,-2.05,-1.20,1.02,
0.93,4.18,-4.88,-9.27,-2.05,-1.20,1.02,
0.93,4.18,-4.88,-9.27,-2.19,-1.27,0.96,
0.931,4.26,-5.23,-9.54,-2.19,-1.27,0.96,
0.932,4.26,-5.23,-9.54,-2.35,-1.33,0.92,
0.932,4.36,-5.61,-9.73,-2.35,-1.33,0.92,
0.932,4.36,-5.61,-9.73,-2.52,-1.39,0.89,
0.933,4.52,-5.89,-9.91,-2.52,-1.39,0.89,
0.933,4.52,-5.89,-9.91,-2.70,-1.45,0.86,
0.934,4.73,-6.20,-9.92,-2.70,-1.45,0.86,
0.934,4.99,-6.56,-9.96,-2.70,-1.45,0.86,
0.934,4.99,-6.56,-9.96,-2.87,-1.50,0.85,
0.935,4.99,-6.56,-9.96,-3.05,-1.54,0.84,
0.935,5.30,-6.85,-9.90,-3.05,-1.54,0.84,
0.935,5.65,-7.11,-9.91,-3.05,-1.54,0.84,
0.936,5.65,-7.11,-9.91,-3.23,-1.58,0.83,
0.936,6.06,-7.32,-9.78,-3.23,-1.58,0.83,
0.936,6.06,-7.32,-9.78,-3.41,-1.61,0.82,
0.942,6.50,-7.50,-9.66,-3.41,-1.61,0.82,
0.942,6.50,-7.50,-9.66,-3.59,-1.63,0.81,
0.946,6.92,-7.58,-9.50,-3.59,-1.63,0.81,
0.947,6.92,-7.58,-9.50,-3.78,-1.64,0.79,
0.951,7.29,-7.65,-9.29,-3.78,-1.64,0.79,
0.952,7.29,-7.65,-9.29,-3.96,-1.63,0.77,
0.956,7.72,-7.64,-9.12,-3.96,-1.63,0.77,
0.956,7.72,-7.64,-9.12,-4.14,-1.62,0.73,
0.96,8.20,-7.63,-8.94,-4.14,-1.62,0.73,
0.961,8.20,-7.63,-8.94,-4.33,-1.59,0.68,
0.965,8.77,-7.66,-8.85,-4.33,-1.59,0.68,
0.966,8.77,-7.66,-8.85,-4.52,-1.58,0.63,
0.97,9.57,-7.68,-8.61,-4.52,-1.58,0.63,
0.971,9.57,-7.68,-8.61,-4.71,-1.56,0.56,
0.975,10.56,-7.75,-8.32,-4.71,-1.56,0.56,
0.976,10.56,-7.75,-8.32,-4.90,-1.53,0.49,
0.987,11.64,-7.80,-7.97,-4.90,-1.53,0.49,
0.988,11.64,-7.80,-7.97,-5.08,-1.48,0.40,
0.988,12.83,-7.79,-7.46,-5.08,-1.48,0.40,
0.989,12.83,-7.79,-7.46,-5.25,-1.41,0.29,
0.99,14.05,-7.81,-6.85,-5.25,-1.41,0.29,
0.991,14.05,-7.81,-6.85,-5.40,-1.31,0.15,
0.995,15.11,-7.86,-6.32,-5.40,-1.31,0.15,
0.996,15.11,-7.86,-6.32,-5.52,-1.18,-0.03,
1.004,16.03,-7.96,-5.82,-5.52,-1.18,-0.03,
1.005,16.03,-7.96,-5.82,-5.62,-1.04,-0.24,
1.005,16.03,-7.96,-5.82,-5.69,-0.91,-0.48,
1.006,16.81,-8.11,-5.26,-5.69,-0.91,-0.48,
1.009,16.81,-8.11,-5.26,-5.73,-0.79,-0.74,
1.01,17.45,-8.26,-4.85,-5.73,-0.79,-0.74,
1.015,17.45,-8.26,-4.85,-5.77,-0.66,-1.03,
1.016,17.93,-8.52,-4.57,-5.77,-0.66,-1.03,
1.019,18.07,-8.94,-4.55,-5.77,-0.66,-1.03,
1.02,18.07,-8.94,-4.55,-5.81,-0.52,-1.31,
1.024,17.88,-9.40,-4.65,-5.81,-0.52,-1.31,
1.025,17.88,-9.40,-4.65,-5.87,-0.36,-1.60,
1.029,17.27,-9.87,-4.91,-5.87,-0.36,-1.60,
1.03,17.27,-9.87,-4.91,-5.95,-0.14,-1.88,
1.034,16.28,-10.24,-5.22,-5.95,-0.14,-1.88,
1.035,16.28,-10.24,-5.22,-6.06,0.11,-2.14,
1.039,15.02,-10.57,-5.59,-6.06,0.11,-2.14,
1.04,15.02,-10.57,-5.59,-6.21,0.40,-2.36,
1.043,13.72,-11.03,-5.88,-6.21,0.40,-2.36,
1.044,13.72,-11.03,-5.88,-6.39,0.70,-2.52,
1.049,13.72,-11.03,-5.88,-6.58,1.01,-2.63,
1.05,12.54,-11.58,-5.94,-6.58,1.01,-2.63,
1.053,11.73,-12.14,-5.65,-6.58,1.01,-2.63,
1.054,11.73,-12.14,-5.65,-6.77,1.28,-2.68,
1.058,11.23,-12.62,-5.06,-6.77,1.28,-2.68,
1.059,11.23,-12.62,-5.06,-6.94,1.48,-2.67,
1.063,11.23,-12.62,-5.06,-7.06,1.62,-2.63,
1.064,10.92,-12.98,-4.14,-7.06,1.62,-2.63,
1.076,10.92,-12.98,-4.14,-7.12,1.69,-2.54,
1.078,10.89,-13.09,-3.05,-7.12,1.69,-2.54,
1.079,11.17,-12.89,-1.90,-7.12,1.69,-2.54,
1.079,11.17,-12.89,-1.90,-7.11,1.67,-2.43,
1.08,11.17,-12.89,-1.90,-7.02,1.55,-2.31,
1.081,11.73,-12.46,-0.77,-7.02,1.55,-2.31,
1.085,12.66,-11.83,0.41,-7.02,1.55,-2.31,
1.086,12.66,-11.83,0.41,-6.86,1.35,-2.18,
1.095,12.66,-11.83,0.41,-6.63,1.07,-2.07,
1.096,13.87,-11.18,1.37,-6.63,1.07,-2.07,
1.097,13.87,-11.18,1.37,-6.37,0.75,-2.02,
1.098,15.16,-10.53,2.16,-6.37,0.75,-2.02,
1.099,15.16,-10.53,2.16,-6.08,0.42,-2.02,
1.099,16.42,-10.03,2.59,-6.08,0.42,-2.02,
1.102,17.53,-9.73,2.73,-6.08,0.42,-2.02,
1.103,17.53,-9.73,2.73,-5.80,0.10,-2.06,
1.116,17.53,-9.73,2.73,-5.56,-0.17,-2.13,
1.117,18.48,-9.61,2.68,-5.56,-0.17,-2.13,
1.118,19.24,-9.49,2.42,-5.56,-0.17,-2.13,
1.118,19.24,-9.49,2.42,-5.36,-0.37,-2.23,
1.119,19.24,-9.49,2.42,-5.24,-0.48,-2.38,
1.119,19.69,-9.42,2.02,-5.24,-0.48,-2.38,
1.121,19.69,-9.42,2.02,-5.20,-0.50,-2.56,
1.122,19.73,-9.41,1.50,-5.20,-0.50,-2.56,
1.126,19.73,-9.41,1.50,-5.24,-0.45,-2.76,
1.127,19.74,-9.39,1.02,-5.24,-0.45,-2.76,
1.135,19.74,-9.39,1.02,-5.36,-0.32,-2.97,
1.136,19.85,-9.44,0.79,-5.36,-0.32,-2.97,
1.136,19.85,-9.44,0.79,-5.53,-0.11,-3.18,
1.137,20.09,-9.71,0.87,-5.53,-0.11,-3.18,
1.142,20.17,-10.19,1.23,-5.53,-0.11,-3.18,
1.176,20.17,-10.19,1.23,-5.74,0.16,-3.40,
1.177,20.16,-10.82,1.76,-5.74,0.16,-3.40,
1.177,20.16,-10.82,1.76,-5.97,0.46,-3.63,
1.178,20.16,-10.82,1.76,-6.19,0.77,-3.87,
1.178,20.05,-11.49,2.50,-6.19,0.77,-3.87,
1.179,19.89,-12.24,3.44,-6.19,0.77,-3.87,
1.179,19.89,-12.24,3.44,-6.40,1.09,-4.12,
1.18,19.60,-12.92,4.52,-6.40,1.09,-4.12,
1.18,19.60,-12.92,4.52,-6.57,1.42,-4.35,
1.181,19.32,-13.53,5.74,-6.57,1.42,-4.35,
1.181,19.32,-13.53,5.74,-6.69,1.74,-4.58,
1.182,19.32,-13.53,5.74,-6.76,2.04,-4.79,
1.182,19.27,-14.08,6.97,-6.76,2.04,-4.79,
1.183,19.27,-14.08,6.97,-6.76,2.35,-5.00,
1.183,19.36,-14.71,8.15,-6.76,2.35,-5.00,
1.184,19.36,-14.71,8.15,-6.68,2.66,-5.20,
1.184,19.44,-15.45,9.24,-6.68,2.66,-5.20,
1.189,19.44,-15.45,9.24,-6.54,2.99,-5.40,
1.19,19.54,-16.33,10.14,-6.54,2.99,-5.40,
1.191,19.48,-17.15,10.85,-6.54,2.99,-5.40,
1.191,19.48,-17.15,10.85,-6.33,3.32,-5.61,
1.195,19.20,-17.96,11.28,-6.33,3.32,-5.61,
1.196,19.20,-17.96,11.28,-6.07,3.66,-5.83,
1.199,18.68,-18.65,11.56,-6.07,3.66,-5.83,
1.2,18.68,-18.65,11.56,-5.77,3.98,-6.07,
1.205,17.92,-19.33,11.64,-5.77,3.98,-6.07,
1.206,17.92,-19.33,11.64,-5.42,4.27,-6.30,
1.209,17.02,-20.12,11.73,-5.42,4.27,-6.30,
1.21,17.02,-20.12,11.73,-5.05,4.52,-6.53,
1.22,17.02,-20.12,11.73,-4.63,4.72,-6.73,
1.221,15.89,-21.02,11.75,-4.63,4.72,-6.73,
1.221,14.72,-21.95,11.79,-4.63,4.72,-6.73,
1.222,14.72,-21.95,11.79,-4.19,4.84,-6.88,
1.224,14.72,-21.95,11.79,-3.72,4.89,-6.99,
1.224,13.62,-22.76,12.06,-3.72,4.89,-6.99,
1.229,13.62,-22.76,12.06,-3.22,4.86,-7.05,
1.23,12.62,-23.32,12.50,-3.22,4.86,-7.05,
1.236,12.62,-23.32,12.50,-2.69,4.78,-7.08,
1.237,11.60,-23.64,12.98,-2.69,4.78,-7.08,
1.238,11.60,-23.64,12.98,-2.11,4.65,-7.06,
1.239,10.64,-23.83,13.43,-2.11,4.65,-7.06,
1.244,9.89,-24.08,13.60,-2.11,4.65,-7.06,
1.245,9.89,-24.08,13.60,-1.49,4.49,-6.99,
1.256,9.89,-24.08,13.60,-0.84,4.29,-6.89,
1.256,9.43,-24.14,13.32,-0.84,4.29,-6.89,
1.257,9.38,-24.05,12.71,-0.84,4.29,-6.89,
1.258,9.38,-24.05,12.71,-0.18,4.03,-6.78,
1.259,9.53,-23.79,11.91,-0.18,4.03,-6.78,
1.259,9.53,-23.79,11.91,0.44,3.75,-6.69,
1.263,9.53,-23.79,11.91,1.04,3.45,-6.64,
1.264,9.77,-23.52,11.01,1.04,3.45,-6.64,
1.276,9.77,-23.52,11.01,1.61,3.14,-6.61,
1.277,9.97,-23.36,10.10,1.61,3.14,-6.61,
1.278,9.97,-23.36,10.10,2.13,2.82,-6.59,
1.279,10.19,-23.36,8.96,2.13,2.82,-6.59,
1.279,10.32,-23.43,7.54,2.13,2.82,-6.59,
1.28,10.32,-23.43,7.54,2.61,2.49,-6.59,
1.29,10.32,-23.43,7.54,3.00,2.17,-6.60,
1.291,10.16,-23.43,5.81,3.00,2.17,-6.60,
1.291,10.16,-23.43,5.81,3.30,1.85,-6.63,
1.292,9.77,-23.35,3.98,3.30,1.85,-6.63,
1.294,9.77,-23.35,3.98,3.49,1.56,-6.66,
1.294,9.13,-23.09,2.30,3.49,1.56,-6.66,
1.297,9.13,-23.09,2.30,3.58,1.29,-6.68,
1.298,8.43,-22.58,0.85,3.58,1.29,-6.68,
1.31,8.43,-22.58,0.85,3.57,1.07,-6.70,
1.311,7.76,-21.90,-0.31,3.57,1.07,-6.70,
1.311,7.76,-21.90,-0.31,3.49,0.85,-6.72,
1.312,7.22,-21.15,-1.25,3.49,0.85,-6.72,
1.312,7.22,-21.15,-1.25,3.36,0.65,-6.72,
1.312,6.78,-20.42,-2.05,3.36,0.65,-6.72,
1.329,6.78,-20.42,-2.05,3.16,0.48,-6.73,
1.33,6.52,-19.77,-2.85,3.16,0.48,-6.73,
1.33,6.52,-19.77,-2.85,2.91,0.32,-6.74,
1.331,6.51,-19.17,-3.59,2.91,0.32,-6.74,
1.331,6.51,-19.17,-3.59,2.61,0.18,-6.77,
1.332,6.42,-18.65,-4.19,2.61,0.18,-6.77,
1.332,6.42,-18.65,-4.19,2.26,0.11,-6.80,
1.333,6.08,-18.35,-4.74,2.26,0.11,-6.80,
1.336,5.69,-18.10,-5.15,2.26,0.11,-6.80,
1.336,5.69,-18.10,-5.15,1.87,0.10,-6.83,
1.373,5.69,-18.10,-5.15,1.45,0.13,-6.83,
1.374,5.34,-17.91,-5.31,1.45,0.13,-6.83,
1.374,5.34,-17.91,-5.31,1.01,0.19,-6.80,
1.374,5.13,-17.72,-5.25,1.01,0.19,-6.80,
1.375,5.13,-17.72,-5.25,0.58,0.30,-6.75,
1.376,5.06,-17.60,-4.82,0.58,0.30,-6.75,
1.376,5.06,-17.60,-4.82,0.16,0.45,-6.69,
1.376,5.10,-17.50,-4.22,0.16,0.45,-6.69,
1.377,5.10,-17.50,-4.22,-0.21,0.60,-6.64,
1.377,5.24,-17.43,-3.55,-0.21,0.60,-6.64,
1.378,5.37,-17.34,-2.78,-0.21,0.60,-6.64,
1.378,5.37,-17.34,-2.78,-0.54,0.75,-6.59,
1.379,5.37,-17.34,-2.78,-0.82,0.88,-6.56,
1.379,5.58,-17.33,-2.01,-0.82,0.88,-6.56,
1.38,5.61,-17.35,-1.29,-0.82,0.88,-6.56,
1.38,5.61,-17.35,-1.29,-1.03,0.96,-6.54,
1.381,5.61,-17.35,-1.29,-1.19,1.00,-6.52,
1.381,5.65,-17.40,-0.58,-1.19,1.00,-6.52,
1.389,5.65,-17.40,-0.58,-1.30,1.00,-6.51,
1.42,5.73,-17.50,0.11,-1.30,1.00,-6.51,
1.42,5.73,-17.50,0.11,-1.36,0.96,-6.50,
1.42,5.76,-17.56,0.73,-1.36,0.96,-6.50,
1.421,5.76,-17.56,0.73,-1.36,0.87,-6.49,
1.421,5.69,-17.68,1.30,-1.36,0.87,-6.49,
1.422,5.69,-17.68,1.30,-1.31,0.75,-6.47,
1.422,5.52,-17.71,1.73,-1.31,0.75,-6.47,
1.423,5.17,-17.73,2.06,-1.31,0.75,-6.47,
1.423,5.17,-17.73,2.06,-1.23,0.61,-6.44,
1.424,5.17,-17.73,2.06,-1.13,0.42,-6.40,
1.424,4.73,-17.61,2.32,-1.13,0.42,-6.40,
1.425,4.73,-17.61,2.32,-1.00,0.20,-6.35,
1.426,4.36,-17.28,2.45,-1.00,0.20,-6.35,
1.428,4.36,-17.28,2.45,-0.86,-0.04,-6.28,
1.428,4.09,-16.95,2.49,-0.86,-0.04,-6.28,
1.429,4.09,-16.58,2.52,-0.86,-0.04,-6.28,
1.434,4.09,-16.58,2.52,-0.73,-0.31,-6.19,
1.435,4.34,-16.36,2.59,-0.73,-0.31,-6.19,
1.435,4.34,-16.36,2.59,-0.61,-0.57,-6.11,
1.435,4.74,-16.16,2.61,-0.61,-0.57,-6.11,
1.436,4.74,-16.16,2.61,-0.50,-0.82,-6.03,
1.441,5.11,-15.90,2.55,-0.50,-0.82,-6.03,
1.441,5.11,-15.90,2.55,-0.40,-1.04,-5.96,
1.443,5.11,-15.90,2.55,-0.33,-1.21,-5.92,
1.444,5.23,-15.65,2.33,-0.33,-1.21,-5.92,
1.455,5.23,-15.65,2.33,-0.29,-1.31,-5.88,
1.455,5.17,-15.31,1.98,-0.29,-1.31,-5.88,
1.456,5.17,-15.31,1.98,-0.28,-1.33,-5.84,
1.456,5.10,-15.00,1.65,-0.28,-1.33,-5.84,
1.458,5.22,-14.80,1.39,-0.28,-1.33,-5.84,
1.459,5.22,-14.80,1.39,-0.30,-1.32,-5.78,
1.463,5.50,-14.67,1.36,-0.30,-1.32,-5.78,
1.464,5.50,-14.67,1.36,-0.35,-1.28,-5.72,
1.471,5.61,-14.52,1.48,-0.35,-1.28,-5.72,
1.472,5.61,-14.52,1.48,-0.40,-1.21,-5.66,
1.473,5.61,-14.52,1.48,-0.45,-1.10,-5.61,
1.473,5.54,-14.32,1.58,-0.45,-1.10,-5.61,
1.478,5.22,-14.07,1.59,-0.45,-1.10,-5.61,
1.479,5.22,-14.07,1.59,-0.48,-0.96,-5.56,
1.482,4.83,-13.77,1.53,-0.48,-0.96,-5.56,
1.483,4.83,-13.77,1.53,-0.50,-0.80,-5.49,
1.488,4.83,-13.77,1.53,-0.52,-0.64,-5.41,
1.488,4.42,-13.47,1.37,-0.52,-0.64,-5.41,
1.492,4.42,-13.47,1.37,-0.54,-0.47,-5.31,
1.492,4.02,-13.14,1.26,-0.54,-0.47,-5.31,
1.497,4.02,-13.14,1.26,-0.56,-0.30,-5.20,
1.498,3.62,-12.72,1.23,-0.56,-0.30,-5.20,
1.503,3.33,-12.26,1.13,-0.56,-0.30,-5.20,
1.504,3.33,-12.26,1.13,-0.58,-0.11,-5.08,
1.507,3.14,-11.99,1.08,-0.58,-0.11,-5.08,
1.508,3.14,-11.99,1.08,-0.59,0.09,-4.95,
1.512,3.14,-11.99,1.08,-0.61,0.30,-4.80,
1.512,3.07,-11.87,0.97,-0.61,0.30,-4.80,
1.517,3.07,-11.87,0.97,-0.62,0.50,-4.66,
1.518,3.09,-11.83,0.93,-0.62,0.50,-4.66,
1.522,3.09,-11.83,0.93,-0.63,0.69,-4.50,
1.523,3.14,-11.72,0.99,-0.63,0.69,-4.50,
1.526,3.17,-11.51,1.19,-0.63,0.69,-4.50,
1.527,3.17,-11.51,1.19,-0.64,0.84,-4.35,
1.531,3.18,-11.30,1.60,-0.64,0.84,-4.35,
1.532,3.18,-11.30,1.60,-0.63,0.96,-4.20,
1.543,3.09,-11.04,2.25,-0.63,0.96,-4.20,
1.543,3.09,-11.04,2.25,-0.61,1.02,-4.06,
1.544,3.09,-10.82,3.09,-0.61,1.02,-4.06,
1.544,3.09,-10.82,3.09,-0.56,1.03,-3.91,
1.549,3.24,-10.63,4.06,-0.56,1.03,-3.91,
1.55,3.24,-10.63,4.06,-0.48,0.99,-3.77,
1.551,3.24,-10.63,4.06,-0.36,0.90,-3.65,
1.552,3.49,-10.52,5.05,-0.36,0.90,-3.65,
1.567,3.49,-10.52,5.05,-0.19,0.75,-3.54,
1.568,3.69,-10.47,6.04,-0.19,0.75,-3.54,
1.569,3.69,-10.47,6.04,0.03,0.56,-3.44,
1.569,3.91,-10.53,7.03,0.03,0.56,-3.44,
1.57,4.14,-10.68,7.92,0.03,0.56,-3.44,
1.57,4.14,-10.68,7.92,0.30,0.34,-3.36,
1.573,4.32,-10.89,8.64,0.30,0.34,-3.36,
1.573,4.32,-10.89,8.64,0.61,0.10,-3.29,
1.575,4.32,-10.89,8.64,0.97,-0.11,-3.23,
1.576,4.21,-11.05,9.28,0.97,-0.11,-3.23,
1.58,4.21,-11.05,9.28,1.36,-0.30,-3.18,
1.581,3.98,-11.02,9.84,1.36,-0.30,-3.18,
1.585,3.63,-10.91,10.21,1.36,-0.30,-3.18,
1.586,3.63,-10.91,10.21,1.79,-0.44,-3.13,
1.59,3.63,-10.91,10.21,2.25,-0.54,-3.08,
1.59,3.32,-10.78,10.36,2.25,-0.54,-3.08,
1.595,3.32,-10.78,10.36,2.72,-0.60,-3.03,
1.595,2.99,-10.76,10.20,2.72,-0.60,-3.03,
1.6,2.75,-10.95,9.74,2.72,-0.60,-3.03,
1.601,2.75,-10.95,9.74,3.20,-0.63,-2.98,
1.605,2.52,-11.16,8.87,3.20,-0.63,-2.98,
1.605,2.52,-11.16,8.87,3.66,-0.65,-2.92,
1.609,2.29,-11.45,7.73,3.66,-0.65,-2.92,
1.609,2.29,-11.45,7.73,4.10,-0.65,-2.84,
1.614,2.11,-11.69,6.30,4.10,-0.65,-2.84,
1.615,2.11,-11.69,6.30,4.48,-0.64,-2.76,
1.619,2.11,-11.69,6.30,4.81,-0.63,-2.66,
1.62,1.97,-11.86,4.73,4.81,-0.63,-2.66,
1.624,1.97,-11.86,4.73,5.07,-0.63,-2.56,
1.625,1.81,-11.94,3.17,5.07,-0.63,-2.56,
1.629,1.81,-11.94,3.17,5.26,-0.64,-2.44,
1.669,1.62,-11.94,1.60,5.26,-0.64,-2.44,
1.67,1.62,-11.94,1.60,5.40,-0.67,-2.33,
1.67,1.43,-11.77,0.03,5.40,-0.67,-2.33,
1.671,1.40,-11.59,-1.53,5.40,-0.67,-2.33,
1.671,1.40,-11.59,-1.53,5.46,-0.73,-2.21,
1.672,1.44,-11.17,-2.98,5.46,-0.73,-2.21,
1.672,1.44,-11.17,-2.98,5.46,-0.80,-2.10,
1.673,1.51,-10.62,-4.27,5.46,-0.80,-2.10,
1.674,1.51,-10.62,-4.27,5.40,-0.86,-1.99,
1.674,1.97,-10.15,-5.44,5.40,-0.86,-1.99,
1.675,1.97,-10.15,-5.44,5.27,-0.90,-1.90,
1.675,2.73,-9.69,-6.40,5.27,-0.90,-1.90,
1.676,2.73,-9.69,-6.40,5.09,-0.94,-1.84,
1.676,3.55,-9.25,-7.20,5.09,-0.94,-1.84,
1.676,3.55,-9.25,-7.20,4.87,-1.00,-1.81,
1.677,4.26,-8.88,-7.89,4.87,-1.00,-1.81,
1.677,4.26,-8.88,-7.89,4.61,-1.07,-1.81,
1.678,4.26,-8.88,-7.89,4.32,-1.12,-1.84,
1.678,4.73,-8.53,-8.52,4.32,-1.12,-1.84,
1.679,4.73,-8.53,-8.52,4.00,-1.16,-1.88,
1.679,5.06,-8.20,-8.93,4.00,-1.16,-1.88,
1.685,5.06,-8.20,-8.93,3.65,-1.16,-1.94,
1.685,5.47,-7.89,-9.18,3.65,-1.16,-1.94,
1.693,5.47,-7.89,-9.18,3.30,-1.15,-2.00,
1.694,5.92,-7.60,-9.27,3.30,-1.15,-2.00,
1.694,5.92,-7.60,-9.27,2.94,-1.11,-2.08,
1.694,6.24,-7.39,-9.19,2.94,-1.11,-2.08,
1.697,6.42,-7.30,-8.93,2.94,-1.11,-2.08,
1.698,6.42,-7.30,-8.93,2.59,-1.07,-2.18,
1.714,6.42,-7.30,-8.93,2.26,-1.04,-2.28,
1.715,6.48,-7.18,-8.61,2.26,-1.04,-2.28,
1.715,6.62,-6.93,-8.12,2.26,-1.04,-2.28,
1.716,6.62,-6.93,-8.12,1.95,-1.04,-2.39,
1.716,6.61,-6.82,-7.54,1.95,-1.04,-2.39,
1.717,6.61,-6.82,-7.54,1.67,-1.06,-2.52,
1.728,6.35,-6.79,-6.99,1.67,-1.06,-2.52,
1.729,6.35,-6.79,-6.99,1.42,-1.09,-2.64,
1.729,6.35,-6.79,-6.99,1.20,-1.11,-2.76,
1.73,5.97,-6.93,-6.55,1.20,-1.11,-2.76,
1.73,5.97,-6.93,-6.55,0.99,-1.11,-2.87,
1.73,5.42,-7.04,-6.10,0.99,-1.11,-2.87,
1.733,4.86,-7.15,-5.70,0.99,-1.11,-2.87,
1.734,4.86,-7.15,-5.70,0.80,-1.08,-2.95,
1.737,4.86,-7.15,-5.70,0.62,-1.05,-3.02,
1.737,4.49,-7.35,-5.20,0.62,-1.05,-3.02,
1.741,4.27,-7.57,-4.70,0.62,-1.05,-3.02,
1.742,4.27,-7.57,-4.70,0.47,-1.00,-3.07,
1.746,4.27,-7.57,-4.70,0.36,-0.97,-3.11,
1.746,3.93,-7.83,-4.29,0.36,-0.97,-3.11,
1.756,3.50,-7.95,-4.03,0.36,-0.97,-3.11,
1.757,3.50,-7.95,-4.03,0.27,-0.96,-3.13,
1.757,3.50,-7.95,-4.03,0.20,-0.97,-3.14,
1.758,2.99,-7.93,-3.95,0.20,-0.97,-3.14,
1.763,2.99,-7.93,-3.95,0.13,-0.99,-3.14,
1.763,2.63,-7.92,-3.97,0.13,-0.99,-3.14,
1.765,2.63,-7.92,-3.97,0.06,-1.02,-3.13,
1.766,2.45,-7.91,-3.97,0.06,-1.02,-3.13,
1.78,2.45,-7.91,-3.97,-0.02,-1.05,-3.11,
1.782,2.27,-8.07,-3.92,-0.02,-1.05,-3.11,
1.782,2.27,-8.07,-3.92,-0.10,-1.07,-3.07,
1.783,2.18,-8.14,-3.82,-0.10,-1.07,-3.07,
1.783,2.18,-8.14,-3.82,-0.18,-1.08,-3.04,
1.784,2.18,-8.20,-3.73,-0.18,-1.08,-3.04,
1.787,2.18,-8.20,-3.73,-0.26,-1.07,-3.01,
1.787,2.21,-8.20,-3.55,-0.26,-1.07,-3.01,
1.79,2.14,-8.21,-3.44,-0.26,-1.07,-3.01,
1.791,2.14,-8.21,-3.44,-0.34,-1.03,-2.98,
1.795,2.01,-8.25,-3.50,-0.34,-1.03,-2.98,
1.796,2.01,-8.25,-3.50,-0.42,-0.97,-2.95,
1.801,1.84,-8.27,-3.64,-0.42,-0.97,-2.95,
1.802,1.84,-8.27,-3.64,-0.50,-0.91,-2.92,
1.805,1.68,-8.29,-3.81,-0.50,-0.91,-2.92,
1.805,1.68,-8.29,-3.81,-0.59,-0.84,-2.88,
1.809,1.68,-8.29,-3.81,-0.69,-0.74,-2.84,
1.81,1.48,-8.38,-3.99,-0.69,-0.74,-2.84,
1.814,1.48,-8.38,-3.99,-0.79,-0.62,-2.80,
1.815,1.17,-8.52,-4.21,-0.79,-0.62,-2.80,
1.819,0.43,-8.61,-4.55,-0.79,-0.62,-2.80,
1.82,0.43,-8.61,-4.55,-0.91,-0.47,-2.77,
1.824,-0.57,-8.52,-5.05,-0.91,-0.47,-2.77,
1.824,-0.57,-8.52,-5.05,-1.06,-0.31,-2.72,
1.864,-1.58,-8.32,-5.36,-1.06,-0.31,-2.72,
1.865,-1.58,-8.32,-5.36,-1.24,-0.14,-2.66,
1.866,-2.36,-8.21,-5.58,-1.24,-0.14,-2.66,
1.866,-2.36,-8.21,-5.58,-1.45,0.03,-2.58,
1.867,-3.01,-8.22,-5.62,-1.45,0.03,-2.58,
1.867,-3.01,-8.22,-5.62,-1.69,0.22,-2.49,
1.868,-3.47,-8.24,-5.54,-1.69,0.22,-2.49,
1.868,-3.47,-8.24,-5.54,-1.93,0.40,-2.40,
1.869,-3.79,-8.18,-5.16,-1.93,0.40,-2.40,
1.869,-3.79,-8.18,-5.16,-2.17,0.56,-2.31,
1.87,-4.07,-8.19,-4.57,-2.17,0.56,-2.31,
1.87,-4.07,-8.19,-4.57,-2.39,0.69,-2.22,
1.871,-4.28,-8.12,-3.71,-2.39,0.69,-2.22,
1.872,-4.28,-8.12,-3.71,-2.59,0.79,-2.15,
1.872,-4.40,-8.06,-2.60,-2.59,0.79,-2.15,
1.873,-4.40,-8.06,-2.60,-2.73,0.88,-2.09,
1.873,-4.40,-8.06,-2.60,-2.81,0.96,-2.05,
1.874,-4.34,-7.83,-1.58,-2.81,0.96,-2.05,
1.874,-4.34,-7.83,-1.58,-2.82,1.00,-2.04,
1.904,-4.41,-7.66,-0.83,-2.82,1.00,-2.04,
1.905,-4.75,-7.72,-0.30,-2.82,1.00,-2.04,
1.905,-4.75,-7.72,-0.30,-2.78,1.02,-2.06,
1.906,-4.75,-7.72,-0.30,-2.71,1.01,-2.07,
1.906,-5.10,-7.96,0.22,-2.71,1.01,-2.07,
1.906,-5.41,-8.19,0.79,-2.71,1.01,-2.07,
1.907,-5.41,-8.19,0.79,-2.61,1.00,-2.07,
1.907,-5.41,-8.19,0.79,-2.47,0.99,-2.05,
1.908,-5.74,-8.25,1.25,-2.47,0.99,-2.05,
1.908,-6.16,-8.18,1.45,-2.47,0.99,-2.05,
1.909,-6.16,-8.18,1.45,-2.31,0.99,-2.02,
1.909,-6.60,-8.03,1.35,-2.31,0.99,-2.02,
1.909,-6.60,-8.03,1.35,-2.12,0.97,-1.96,
1.91,-7.03,-7.95,1.05,-2.12,0.97,-1.96,
1.91,-7.03,-7.95,1.05,-1.94,0.95,-1.88,
1.912,-7.03,-7.95,1.05,-1.77,0.92,-1.78,
1.913,-7.32,-7.85,0.59,-1.77,0.92,-1.78,
1.918,-7.36,-7.83,0.09,-1.77,0.92,-1.78,
1.919,-7.36,-7.83,0.09,-1.62,0.89,-1.65,
1.921,-7.16,-7.68,-0.48,-1.62,0.89,-1.65,
1.922,-7.16,-7.68,-0.48,-1.49,0.87,-1.51,
1.927,-6.63,-7.39,-0.97,-1.49,0.87,-1.51,
1.927,-6.63,-7.39,-0.97,-1.39,0.86,-1.35,
1.931,-5.63,-6.84,-1.54,-1.39,0.86,-1.35,
1.932,-5.63,-6.84,-1.54,-1.31,0.88,-1.21,
1.949,-4.28,-6.18,-2.30,-1.31,0.88,-1.21,
1.95,-4.28,-6.18,-2.30,-1.26,0.94,-1.11,
1.951,-4.28,-6.18,-2.30,-1.24,1.06,-1.06,
1.951,-2.76,-5.50,-3.36,-1.24,1.06,-1.06,
1.952,-2.76,-5.50,-3.36,-1.27,1.25,-1.07,
1.952,-1.32,-4.82,-4.56,-1.27,1.25,-1.07,
1.958,-1.32,-4.82,-4.56,-1.38,1.50,-1.15,
1.959,0.16,-4.18,-6.03,-1.38,1.50,-1.15,
1.96,1.70,-3.52,-7.80,-1.38,1.50,-1.15,
1.96,1.70,-3.52,-7.80,-1.56,1.84,-1.31,
1.961,1.70,-3.52,-7.80,-1.84,2.27,-1.56,
1.962,3.14,-2.87,-9.79,-1.84,2.27,-1.56,
1.967,3.14,-2.87,-9.79,-2.24,2.79,-1.90,
1.968,4.11,-2.61,-11.49,-2.24,2.79,-1.90,
2.043,4.11,-2.61,-11.49,-2.73,3.36,-2.32,
2.044,4.57,-3.04,-12.60,-2.73,3.36,-2.32,
2.044,4.57,-3.04,-12.60,-3.27,3.94,-2.77,
2.045,4.99,-4.14,-13.71,-3.27,3.94,-2.77,
2.045,5.52,-5.38,-14.86,-3.27,3.94,-2.77,
2.046,5.52,-5.38,-14.86,-3.87,4.40,-3.23,
2.047,5.52,-5.38,-14.86,-4.55,4.71,-3.73,
2.047,5.59,-6.72,-15.89,-4.55,4.71,-3.73,
2.048,4.18,-9.06,-16.53,-4.55,4.71,-3.73,
2.049,4.18,-9.06,-16.53,-5.30,4.87,-4.27,
2.05,4.18,-9.06,-16.53,-6.09,4.86,-4.79,
2.05,1.30,-12.96,-16.61,-6.09,4.86,-4.79,
2.051,1.30,-12.96,-16.61,-6.90,4.59,-5.19,
2.052,-1.49,-16.50,-14.22,-6.90,4.59,-5.19,
2.054,-1.49,-16.50,-14.22,-7.52,4.24,-5.50,
2.054,-5.29,-19.94,-8.57,-7.52,4.24,-5.50,
2.055,-5.29,-19.94,-8.57,-7.72,3.95,-5.60,
2.055,-12.81,-21.76,-0.74,-7.72,3.95,-5.60,
2.056,-12.81,-21.76,-0.74,-7.42,3.57,-5.20,
2.057,-20.87,-21.63,7.63,-7.42,3.57,-5.20,
2.057,-25.94,-20.05,14.18,-7.42,3.57,-5.20,
2.058,-25.94,-20.05,14.18,-6.64,2.96,-4.30,
2.059,-26.61,-17.52,17.91,-6.64,2.96,-4.30,
2.06,-26.61,-17.52,17.91,-5.49,2.03,-3.09,
2.06,-23.53,-14.55,19.73,-5.49,2.03,-3.09,
2.061,-23.53,-14.55,19.73,-4.06,0.86,-1.83,
2.062,-18.06,-11.96,19.51,-4.06,0.86,-1.83,
2.063,-18.06,-11.96,19.51,-2.47,-0.46,-0.78,
2.063,-12.34,-10.14,17.06,-2.47,-0.46,-0.78,
2.064,-12.34,-10.14,17.06,-0.94,-1.72,-0.08,
2.065,-12.34,-10.14,17.06,0.37,-2.75,0.28,
2.065,-7.61,-9.03,12.93,0.37,-2.75,0.28,
2.066,-4.10,-8.06,8.17,0.37,-2.75,0.28,
2.066,-4.10,-8.06,8.17,1.33,-3.43,0.39,
2.067,-1.77,-6.99,3.67,1.33,-3.43,0.39,
2.067,-1.77,-6.99,3.67,1.89,-3.75,0.34,
2.068,-1.77,-6.99,3.67,2.10,-3.75,0.18,
2.068,-0.67,-5.94,-0.11,2.10,-3.75,0.18,
2.069,-0.96,-5.18,-2.91,2.10,-3.75,0.18,
2.069,-0.96,-5.18,-2.91,2.01,-3.49,-0.03,
2.07,-0.96,-5.18,-2.91,1.69,-3.02,-0.20,
2.071,-2.34,-4.71,-4.98,1.69,-3.02,-0.20,
2.083,-2.34,-4.71,-4.98,1.22,-2.40,-0.27,
2.084,-4.12,-4.46,-6.57,1.22,-2.40,-0.27,
2.084,-5.72,-4.24,-7.76,1.22,-2.40,-0.27,
2.085,-5.72,-4.24,-7.76,0.65,-1.69,-0.21,
2.085,-5.72,-4.24,-7.76,0.02,-0.95,-0.03,
2.085,-6.89,-4.05,-8.31,0.02,-0.95,-0.03,
2.088,-6.89,-4.05,-8.31,-0.61,-0.24,0.23,
2.088,-7.42,-3.86,-8.31,-0.61,-0.24,0.23,
2.093,-7.42,-3.86,-8.31,-1.19,0.37,0.53,
2.094,-7.28,-3.63,-8.01,-1.19,0.37,0.53,
2.097,-7.28,-3.63,-8.01,-1.71,0.86,0.84,
2.098,-6.67,-3.35,-7.42,-1.71,0.86,0.84,
2.107,-5.70,-2.92,-6.50,-1.71,0.86,0.84,
2.108,-5.70,-2.92,-6.50,-2.15,1.21,1.12,
2.108,-4.58,-2.47,-5.35,-2.15,1.21,1.12,
2.108,-4.58,-2.47,-5.35,-2.50,1.44,1.36,
2.113,-3.34,-1.99,-4.07,-2.50,1.44,1.36,
2.114,-3.34,-1.99,-4.07,-2.76,1.57,1.54,
2.127,-2.13,-1.49,-2.59,-2.76,1.57,1.54,
2.162,-2.13,-1.49,-2.59,-2.92,1.62,1.65,
2.162,-2.13,-1.49,-2.59,-3.00,1.60,1.71,
2.162,-1.04,-1.07,-1.11,-3.00,1.60,1.71,
2.163,-1.04,-1.07,-1.11,-2.97,1.51,1.71,
2.163,-0.19,-0.65,0.37,-2.97,1.51,1.71,
2.163,-0.19,-0.65,0.37,-2.86,1.37,1.68,
2.164,0.47,-0.23,1.76,-2.86,1.37,1.68,
2.164,0.97,0.24,2.90,-2.86,1.37,1.68,
2.164,0.97,0.24,2.90,-2.65,1.18,1.64,
2.164,0.97,0.24,2.90,-2.38,0.94,1.58,
2.165,1.41,0.74,3.80,-2.38,0.94,1.58,
2.165,1.84,1.26,4.48,-2.38,0.94,1.58,
2.165,1.84,1.26,4.48,-2.06,0.67,1.51,
2.166,2.35,1.78,4.96,-2.06,0.67,1.51,
2.166,2.35,1.78,4.96,-1.70,0.37,1.44,
2.166,2.89,2.25,5.37,-1.70,0.37,1.44,
2.166,2.89,2.25,5.37,-1.31,0.05,1.34,
2.167,3.30,2.63,5.60,-1.31,0.05,1.34,
2.167,3.30,2.63,5.60,-0.91,-0.27,1.23,
2.167,3.63,2.93,5.70,-0.91,-0.27,1.23,
2.168,3.63,2.93,5.70,-0.50,-0.58,1.11,
2.172,3.82,3.15,5.77,-0.50,-0.58,1.11,
2.172,3.82,3.15,5.77,-0.10,-0.88,0.99,
2.175,3.82,3.15,5.77,0.29,-1.15,0.88,
2.176,3.93,3.40,5.70,0.29,-1.15,0.88,
2.181,3.93,3.40,5.70,0.66,-1.40,0.78,
2.181,4.04,3.64,5.51,0.66,-1.40,0.78,
2.19,4.16,3.84,5.21,0.66,-1.40,0.78,
2.191,4.16,3.84,5.21,1.00,-1.62,0.68,
2.191,4.30,4.00,4.83,1.00,-1.62,0.68,
2.192,4.30,4.00,4.83,1.31,-1.82,0.57,
2.197,4.30,4.00,4.83,1.59,-1.98,0.47,
2.197,4.50,4.12,4.35,1.59,-1.98,0.47,
2.199,4.50,4.12,4.35,1.81,-2.09,0.37,
2.2,4.63,4.12,3.74,1.81,-2.09,0.37,
2.208,4.63,4.12,3.74,1.99,-2.15,0.26,
2.208,4.75,4.09,3.00,1.99,-2.15,0.26,
2.21,4.75,4.09,3.00,2.11,-2.13,0.13,
2.21,5.32,3.85,2.10,2.11,-2.13,0.13,
2.214,5.47,3.22,0.81,2.11,-2.13,0.13,
2.215,5.47,3.22,0.81,2.16,-2.00,-0.05,
2.219,5.47,3.22,0.81,2.15,-1.81,-0.27,
2.22,4.12,2.46,-0.65,2.15,-1.81,-0.27,
2.224,4.12,2.46,-0.65,2.06,-1.59,-0.41,
2.225,1.91,2.19,-1.82,2.06,-1.59,-0.41,
2.229,1.91,2.19,-1.82,1.88,-1.38,-0.43,
2.23,-0.02,2.39,-2.75,1.88,-1.38,-0.43,
2.234,-0.02,2.39,-2.75,1.64,-1.20,-0.32,
2.234,-0.93,2.61,-3.37,1.64,-1.20,-0.32,
2.238,-0.93,2.61,-3.37,1.36,-1.05,-0.15,
2.239,-0.89,2.78,-3.68,1.36,-1.05,-0.15,
2.244,-0.89,2.78,-3.68,1.07,-0.93,0.01,
2.245,-0.18,2.91,-3.55,1.07,-0.93,0.01,
2.249,0.68,2.95,-3.20,1.07,-0.93,0.01,
2.249,0.68,2.95,-3.20,0.79,-0.81,0.13,
2.254,1.31,2.96,-2.90,0.79,-0.81,0.13,
2.255,1.31,2.96,-2.90,0.54,-0.66,0.19,
2.259,1.31,2.96,-2.90,0.33,-0.49,0.22,
2.259,1.67,2.90,-2.65,0.33,-0.49,0.22,
2.264,1.94,2.73,-2.41,0.33,-0.49,0.22,
2.264,1.94,2.73,-2.41,0.13,-0.31,0.23,
2.27,1.94,2.73,-2.41,-0.06,-0.12,0.23,
2.27,2.24,2.58,-2.18,-0.06,-0.12,0.23,
2.273,2.24,2.58,-2.18,-0.21,0.05,0.20,
2.274,2.49,2.48,-1.93,-0.21,0.05,0.20,
2.278,2.49,2.48,-1.93,-0.35,0.19,0.15,
2.279,2.39,2.35,-1.75,-0.35,0.19,0.15,
2.283,2.39,2.35,-1.75,-0.46,0.29,0.10,
2.283,2.16,2.24,-1.63,-0.46,0.29,0.10,
2.288,2.16,2.24,-1.63,-0.56,0.36,0.06,
2.289,1.96,2.09,-1.44,-0.56,0.36,0.06,
2.293,1.96,2.09,-1.44,-0.64,0.39,0.04,
2.293,1.98,2.00,-1.22,-0.64,0.39,0.04,
2.297,1.98,2.00,-1.22,-0.71,0.40,0.00,
2.298,1.99,1.89,-1.01,-0.71,0.40,0.00,
2.313,1.84,1.80,-0.73,-0.71,0.40,0.00,
2.313,1.84,1.80,-0.73,-0.76,0.40,-0.04,
2.314,1.84,1.80,-0.73,-0.80,0.38,-0.09,
2.315,1.75,1.73,-0.40,-0.80,0.38,-0.09,
2.315,1.58,1.62,-0.03,-0.80,0.38,-0.09,
2.316,1.58,1.62,-0.03,-0.82,0.34,-0.13,
2.317,1.58,1.62,-0.03,-0.81,0.30,-0.17,
2.317,1.53,1.51,0.32,-0.81,0.30,-0.17,
2.37,1.53,1.51,0.32,-0.77,0.25,-0.21,
2.37,1.41,1.41,0.58,-0.77,0.25,-0.21,
2.371,1.41,1.41,0.58,-0.71,0.19,-0.24,
2.371,1.40,1.33,0.58,-0.71,0.19,-0.24,
2.372,1.40,1.33,0.58,-0.65,0.12,-0.27,
2.372,1.40,1.21,0.51,-0.65,0.12,-0.27,
2.372,1.40,1.21,0.51,-0.60,0.06,-0.30,
2.373,1.44,1.12,0.39,-0.60,0.06,-0.30,
2.373,1.44,1.12,0.39,-0.54,-0.00,-0.34,
2.374,1.48,1.01,0.24,-0.54,-0.00,-0.34,
2.375,1.56,0.91,0.11,-0.54,-0.00,-0.34,
2.375,1.56,0.91,0.11,-0.49,-0.06,-0.39,
2.376,1.56,0.91,0.11,-0.43,-0.13,-0.46,
2.376,1.64,0.85,0.08,-0.43,-0.13,-0.46,
2.377,1.64,0.85,0.08,-0.37,-0.23,-0.55,
2.377,1.68,0.80,0.10,-0.37,-0.23,-0.55,
2.377,1.68,0.80,0.10,-0.30,-0.37,-0.64,
2.406,1.93,0.75,0.33,-0.30,-0.37,-0.64,
2.407,1.93,0.75,0.33,-0.20,-0.55,-0.74,
2.407,2.31,0.76,0.68,-0.20,-0.55,-0.74,
2.408,2.71,0.79,1.11,-0.20,-0.55,-0.74,
2.408,2.71,0.79,1.11,-0.08,-0.77,-0.87,
2.409,2.99,0.74,1.38,-0.08,-0.77,-0.87,
2.409,2.99,0.74,1.38,0.08,-1.01,-1.03,
2.409,2.95,0.66,1.51,0.08,-1.01,-1.03,
2.41,2.95,0.66,1.51,0.26,-1.27,-1.20,
2.41,2.73,0.54,1.45,0.26,-1.27,-1.20,
2.411,2.73,0.54,1.45,0.43,-1.52,-1.39,
2.411,2.73,0.54,1.45,0.59,-1.75,-1.56,
2.411,2.43,0.47,1.30,0.59,-1.75,-1.56,
2.412,2.43,0.47,1.30,0.70,-1.95,-1.71,
2.412,2.12,0.46,1.12,0.70,-1.95,-1.71,
2.413,2.12,0.46,1.12,0.79,-2.09,-1.84,
2.413,1.72,0.38,0.95,0.79,-2.09,-1.84,
2.414,1.72,0.38,0.95,0.85,-2.18,-1.93,
2.414,1.25,0.11,0.77,0.85,-2.18,-1.93,
2.414,1.25,0.11,0.77,0.88,-2.18,-1.99,
2.415,0.75,-0.25,0.46,0.88,-2.18,-1.99,
2.415,0.75,-0.25,0.46,0.86,-2.12,-2.01,
2.416,0.21,-0.49,0.09,0.86,-2.12,-2.01,
2.423,0.21,-0.49,0.09,0.80,-1.99,-2.00,
2.424,-0.33,-0.54,-0.24,0.80,-1.99,-2.00,
2.424,-0.33,-0.54,-0.24,0.70,-1.82,-1.96,
2.425,-0.79,-0.60,-0.55,0.70,-1.82,-1.96,
2.43,-0.79,-0.60,-0.55,0.56,-1.61,-1.90,
2.43,-1.22,-0.70,-0.80,0.56,-1.61,-1.90,
2.434,-1.22,-0.70,-0.80,0.39,-1.39,-1.83,
2.435,-1.77,-0.98,-1.15,0.39,-1.39,-1.83,
2.446,-2.55,-1.30,-1.44,0.39,-1.39,-1.83,
2.447,-2.55,-1.30,-1.44,0.20,-1.18,-1.73,
2.447,-3.45,-1.58,-1.70,0.20,-1.18,-1.73,
2.448,-3.45,-1.58,-1.70,-0.01,-0.98,-1.62,
2.456,-4.19,-1.85,-1.72,-0.01,-0.98,-1.62,
2.456,-4.71,-2.07,-1.42,-0.01,-0.98,-1.62,
2.457,-4.71,-2.07,-1.42,-0.22,-0.81,-1.47,
2.457,-4.71,-2.07,-1.42,-0.43,-0.68,-1.29,
2.459,-4.71,-2.07,-1.42,-0.60,-0.61,-1.10,
2.459,-4.87,-2.21,-0.87,-0.60,-0.61,-1.10,
2.463,-4.87,-2.21,-0.87,-0.73,-0.61,-0.90,
2.464,-4.67,-2.30,-0.14,-0.73,-0.61,-0.90,
2.468,-4.67,-2.30,-0.14,-0.81,-0.66,-0.71,
2.469,-4.31,-2.30,0.74,-0.81,-0.66,-0.71,
2.473,-4.31,-2.30,0.74,-0.83,-0.73,-0.55,
2.474,-3.82,-2.24,1.55,-0.83,-0.73,-0.55,
2.478,-3.82,-2.24,1.55,-0.81,-0.82,-0.42,
2.478,-3.23,-2.17,2.19,-0.81,-0.82,-0.42,
2.482,-2.62,-2.17,2.77,-0.81,-0.82,-0.42,
2.483,-2.62,-2.17,2.77,-0.74,-0.90,-0.31,
2.488,-1.93,-2.18,3.26,-0.74,-0.90,-0.31,
2.489,-1.93,-2.18,3.26,-0.64,-0.97,-0.22,
2.493,-1.93,-2.18,3.26,-0.51,-1.00,-0.17,
2.493,-1.38,-2.10,3.64,-0.51,-1.00,-0.17,
2.497,-1.38,-2.10,3.64,-0.36,-1.00,-0.14,
2.498,-1.05,-1.95,3.90,-0.36,-1.00,-0.14,
2.503,-0.79,-1.81,3.87,-0.36,-1.00,-0.14,
2.503,-0.79,-1.81,3.87,-0.20,-1.00,-0.13,
2.507,-0.74,-1.67,3.59,-0.20,-1.00,-0.13,
2.507,-0.74,-1.67,3.59,-0.05,-0.99,-0.13,
2.512,-0.83,-1.61,3.22,-0.05,-0.99,-0.13,
2.512,-0.83,-1.61,3.22,0.08,-0.98,-0.13,
2.516,-1.02,-1.51,2.94,0.08,-0.98,-0.13,
2.517,-1.02,-1.51,2.94,0.19,-0.95,-0.13,
2.522,-1.02,-1.51,2.94,0.28,-0.91,-0.11,
2.522,-1.19,-1.45,2.70,0.28,-0.91,-0.11,
2.526,-1.19,-1.45,2.70,0.34,-0.86,-0.09,
2.527,-1.37,-1.40,2.49,0.34,-0.86,-0.09,
2.531,-1.69,-1.40,2.31,0.34,-0.86,-0.09,
2.532,-1.69,-1.40,2.31,0.39,-0.79,-0.06,
2.543,-1.69,-1.40,2.31,0.43,-0.72,-0.01,
2.543,-2.05,-1.27,2.17,0.43,-0.72,-0.01,
2.544,-2.05,-1.27,2.17,0.45,-0.64,0.06,
2.544,-2.24,-1.24,1.97,0.45,-0.64,0.06,
2.546,-2.28,-1.22,1.82,0.45,-0.64,0.06,
2.546,-2.28,-1.22,1.82,0.47,-0.55,0.15,
2.551,-2.28,-1.22,1.82,0.48,-0.44,0.24,
2.552,-2.25,-1.26,1.57,0.48,-0.44,0.24,
2.565,-2.25,-1.26,1.57,0.49,-0.31,0.34,
2.566,-2.26,-1.30,1.34,0.49,-0.31,0.34,
2.566,-2.26,-1.30,1.34,0.50,-0.18,0.44,
2.567,-2.24,-1.30,0.99,0.50,-0.18,0.44,
2.567,-2.18,-1.18,0.53,0.50,-0.18,0.44,
2.568,-2.18,-1.18,0.53,0.50,-0.06,0.56,
2.571,-2.00,-1.04,0.03,0.50,-0.06,0.56,
2.572,-2.00,-1.04,0.03,0.50,0.06,0.66,
2.576,-1.74,-0.90,-0.43,0.50,0.06,0.66,
2.576,-1.74,-0.90,-0.43,0.48,0.17,0.76,
2.58,-1.45,-0.82,-0.90,0.48,0.17,0.76,
2.581,-1.45,-0.82,-0.90,0.45,0.27,0.85,
2.585,-1.23,-0.65,-1.37,0.45,0.27,0.85,
2.586,-1.23,-0.65,-1.37,0.41,0.36,0.92,
2.59,-1.08,-0.52,-1.91,0.41,0.36,0.92,
2.591,-1.08,-0.52,-1.91,0.36,0.43,0.98,
2.595,-0.92,-0.37,-2.45,0.36,0.43,0.98,
2.595,-0.92,-0.37,-2.45,0.30,0.47,1.04,
2.599,-0.78,-0.18,-3.03,0.30,0.47,1.04,
2.6,-0.78,-0.18,-3.03,0.22,0.48,1.08,
2.604,-0.55,-0.02,-3.49,0.22,0.48,1.08,
2.635,-0.55,-0.02,-3.49,0.12,0.46,1.12,
2.636,-0.55,-0.02,-3.49,0.00,0.43,1.15,
2.636,-0.29,0.14,-3.87,0.00,0.43,1.15,
2.636,-0.29,0.14,-3.87,-0.14,0.38,1.16,
2.637,-0.04,0.31,-4.09,-0.14,0.38,1.16,
2.637,-0.04,0.31,-4.09,-0.28,0.33,1.16,
2.637,0.29,0.45,-4.07,-0.28,0.33,1.16,
2.638,0.67,0.60,-3.83,-0.28,0.33,1.16,
2.638,0.67,0.60,-3.83,-0.43,0.26,1.15,
2.638,1.10,0.79,-3.39,-0.43,0.26,1.15,
2.639,1.10,0.79,-3.39,-0.56,0.18,1.13,
2.639,1.10,0.79,-3.39,-0.68,0.11,1.10,
2.639,1.44,1.00,-2.87,-0.68,0.11,1.10,
2.64,1.79,1.21,-2.36,-0.68,0.11,1.10,
2.64,1.79,1.21,-2.36,-0.78,0.04,1.06,
2.643,2.12,1.27,-1.89,-0.78,0.04,1.06,
2.644,2.12,1.27,-1.89,-0.86,-0.01,1.01,
2.65,2.57,1.25,-1.46,-0.86,-0.01,1.01,
2.651,2.57,1.25,-1.46,-0.93,-0.05,0.96,
2.653,2.57,1.25,-1.46,-0.99,-0.09,0.89,
2.653,3.03,1.29,-1.04,-0.99,-0.09,0.89,
2.658,3.03,1.29,-1.04,-1.05,-0.11,0.80,
2.658,3.48,1.35,-0.66,-1.05,-0.11,0.80,
2.663,3.48,1.35,-0.66,-1.10,-0.12,0.67,
2.663,3.70,1.32,-0.30,-1.10,-0.12,0.67,
2.668,3.70,1.32,-0.30,-1.14,-0.11,0.53,
2.669,3.80,1.29,0.06,-1.14,-0.11,0.53,
2.673,3.80,1.29,0.06,-1.18,-0.09,0.38,
2.674,3.77,1.07,0.44,-1.18,-0.09,0.38,
2.677,3.77,1.07,0.44,-1.21,-0.06,0.24,
2.678,3.57,0.87,0.79,-1.21,-0.06,0.24,
2.682,3.57,0.87,0.79,-1.22,-0.01,0.09,
2.682,3.12,0.64,1.14,-1.22,-0.01,0.09,
2.687,2.61,0.38,1.48,-1.22,-0.01,0.09,
2.688,2.61,0.38,1.48,-1.23,0.03,-0.05,
2.693,2.61,0.38,1.48,-1.22,0.05,-0.17,
2.693,1.97,0.12,1.83,-1.22,0.05,-0.17,
2.697,1.97,0.12,1.83,-1.19,0.04,-0.25,
2.697,1.34,-0.14,2.23,-1.19,0.04,-0.25,
2.704,0.83,-0.33,2.60,-1.19,0.04,-0.25,
2.706,0.83,-0.33,2.60,-1.13,0.01,-0.31,
2.707,0.37,-0.47,2.88,-1.13,0.01,-0.31,
2.708,0.37,-0.47,2.88,-1.05,-0.04,-0.33,
2.712,0.37,-0.47,2.88,-0.96,-0.12,-0.33,
2.713,0.12,-0.50,3.08,-0.96,-0.12,-0.33,
2.717,0.12,-0.50,3.08,-0.86,-0.21,-0.32,
2.718,0.02,-0.56,3.16,-0.86,-0.21,-0.32,
2.722,0.02,-0.56,3.16,-0.76,-0.29,-0.31,
2.723,-0.03,-0.59,3.06,-0.76,-0.29,-0.31,
2.727,-0.03,-0.59,3.06,-0.67,-0.35,-0.29,
2.728,-0.03,-0.68,2.90,-0.67,-0.35,-0.29,
2.732,0.01,-0.72,2.67,-0.67,-0.35,-0.29,
2.733,0.01,-0.72,2.67,-0.60,-0.40,-0.27,
2.747,0.09,-0.81,2.46,-0.60,-0.40,-0.27,
2.748,0.09,-0.81,2.46,-0.55,-0.42,-0.26,
2.749,0.12,-0.88,2.15,-0.55,-0.42,-0.26,
2.75,0.12,-0.88,2.15,-0.53,-0.41,-0.25,
2.75,-0.01,-0.96,1.84,-0.53,-0.41,-0.25,
2.751,-0.01,-0.96,1.84,-0.54,-0.38,-0.25,
2.752,-0.22,-1.13,1.66,-0.54,-0.38,-0.25,
2.753,-0.22,-1.13,1.66,-0.56,-0.33,-0.24,
2.756,-0.43,-1.28,1.54,-0.56,-0.33,-0.24,
2.757,-0.43,-1.28,1.54,-0.60,-0.26,-0.21,
2.778,-0.43,-1.28,1.54,-0.65,-0.17,-0.17,
2.779,-0.54,-1.36,1.50,-0.65,-0.17,-0.17,
2.78,-0.54,-1.36,1.50,-0.71,-0.06,-0.10,
2.78,-0.54,-1.47,1.48,-0.71,-0.06,-0.10,
2.781,-0.53,-1.52,1.41,-0.71,-0.06,-0.10,
2.782,-0.53,-1.52,1.41,-0.77,0.07,-0.04,
2.782,-0.53,-1.52,1.41,-0.83,0.20,0.03,
2.782,-0.59,-1.57,1.33,-0.83,0.20,0.03,
2.783,-0.59,-1.57,1.33,-0.90,0.34,0.11,
2.783,-0.67,-1.58,1.23,-0.90,0.34,0.11,
2.788,-0.67,-1.58,1.23,-0.98,0.49,0.20,
2.788,-0.74,-1.58,1.25,-0.98,0.49,0.20,
2.791,-0.67,-1.56,1.29,-0.98,0.49,0.20,
2.792,-0.67,-1.56,1.29,-1.05,0.67,0.29,
2.795,-0.67,-1.56,1.29,-1.12,0.85,0.40,
2.796,-0.43,-1.47,1.33,-1.12,0.85,0.40,
2.8,-0.43,-1.47,1.33,-1.18,1.03,0.50,
2.8,-0.08,-1.39,1.30,-1.18,1.03,0.50,
2.847,-0.08,-1.39,1.30,-1.25,1.20,0.59,
2.848,0.39,-1.28,1.19,-1.25,1.20,0.59,
2.848,1.12,-1.10,1.06,-1.25,1.20,0.59,
2.849,1.12,-1.10,1.06,-1.33,1.34,0.67,
2.849,1.12,-1.10,1.06,-1.43,1.44,0.73,
2.849,2.02,-0.84,0.96,-1.43,1.44,0.73,
2.85,2.02,-0.84,0.96,-1.55,1.53,0.75,
2.85,2.96,-0.57,0.87,-1.55,1.53,0.75,
2.851,3.73,-0.36,0.85,-1.55,1.53,0.75,
2.851,3.73,-0.36,0.85,-1.68,1.60,0.70,
2.852,4.28,-0.24,1.02,-1.68,1.60,0.70,
2.852,4.28,-0.24,1.02,-1.83,1.68,0.59,
2.853,4.52,-0.23,1.31,-1.83,1.68,0.59,
2.853,4.52,-0.23,1.31,-1.99,1.76,0.42,
2.853,4.52,-0.23,1.31,-2.12,1.85,0.23,
2.854,4.45,-0.38,1.80,-2.12,1.85,0.23,
2.854,4.45,-0.38,1.80,-2.23,1.94,0.04,
2.855,4.09,-0.58,2.44,-2.23,1.94,0.04,
2.855,3.54,-0.94,3.30,-2.23,1.94,0.04,
2.886,3.54,-0.94,3.30,-2.29,2.02,-0.14,
2.886,3.04,-1.30,4.02,-2.29,2.02,-0.14,
2.887,3.04,-1.30,4.02,-2.29,2.09,-0.29,
2.887,2.71,-1.70,4.41,-2.29,2.09,-0.29,
2.887,2.71,-1.70,4.41,-2.23,2.13,-0.42,
2.888,2.33,-2.16,4.55,-2.23,2.13,-0.42,
2.888,2.33,-2.16,4.55,-2.12,2.13,-0.54,
2.889,1.48,-2.56,4.46,-2.12,2.13,-0.54,
2.889,1.48,-2.56,4.46,-1.97,2.11,-0.64,
2.89,1.48,-2.56,4.46,-1.82,2.03,-0.69,
2.89,0.52,-2.81,4.25,-1.82,2.03,-0.69,
2.89,-0.31,-2.79,3.99,-1.82,2.03,-0.69,
2.891,-0.31,-2.79,3.99,-1.67,1.90,-0.70,
2.891,-0.83,-2.69,3.84,-1.67,1.90,-0.70,
2.892,-0.83,-2.69,3.84,-1.55,1.70,-0.67,
2.892,-1.00,-2.68,3.78,-1.55,1.70,-0.67,
2.893,-1.00,-2.68,3.78,-1.43,1.44,-0.61,
2.893,-1.00,-2.68,3.78,-1.33,1.15,-0.56,
2.894,-1.04,-2.70,3.97,-1.33,1.15,-0.56,
2.901,-1.04,-2.70,3.97,-1.22,0.85,-0.51,
2.901,-1.09,-2.79,4.38,-1.22,0.85,-0.51,
2.902,-1.36,-2.83,4.94,-1.22,0.85,-0.51,
2.902,-1.36,-2.83,4.94,-1.10,0.55,-0.47,
2.911,-1.36,-2.83,4.94,-0.96,0.29,-0.41,
2.912,-1.59,-2.92,5.56,-0.96,0.29,-0.41,
2.912,-1.59,-2.92,5.56,-0.81,0.06,-0.33,
2.913,-1.66,-2.95,6.19,-0.81,0.06,-0.33,
2.92,-1.66,-2.95,6.19,-0.65,-0.16,-0.23,
2.921,-1.43,-3.00,6.74,-0.65,-0.16,-0.23,
2.956,-0.90,-3.00,7.22,-0.65,-0.16,-0.23,
2.957,-0.90,-3.00,7.22,-0.48,-0.33,-0.13,
2.957,-0.32,-2.92,7.47,-0.48,-0.33,-0.13,
2.958,-0.32,-2.92,7.47,-0.30,-0.46,-0.04,
2.958,-0.32,-2.92,7.47,-0.12,-0.55,0.03,
2.959,0.37,-2.88,7.50,-0.12,-0.55,0.03,
2.959,1.04,-2.82,7.38,-0.12,-0.55,0.03,
2.959,1.04,-2.82,7.38,0.03,-0.60,0.08,
2.96,1.04,-2.82,7.38,0.16,-0.61,0.11,
2.96,1.57,-2.73,7.14,0.16,-0.61,0.11,
2.96,1.57,-2.73,7.14,0.26,-0.58,0.12,
2.961,1.86,-2.59,6.82,0.26,-0.58,0.12,
2.961,2.13,-2.50,6.57,0.26,-0.58,0.12,
2.961,2.13,-2.50,6.57,0.31,-0.52,0.12,
2.962,2.13,-2.50,6.57,0.33,-0.42,0.12,
2.962,2.44,-2.55,6.35,0.33,-0.42,0.12,
2.962,2.44,-2.55,6.35,0.33,-0.29,0.12,
2.963,2.59,-2.69,6.13,0.33,-0.29,0.12,
2.969,2.59,-2.69,6.13,0.30,-0.13,0.12,
2.969,2.70,-2.81,6.07,0.30,-0.13,0.12,
2.97,2.64,-2.88,5.99,0.30,-0.13,0.12,
2.971,2.64,-2.88,5.99,0.26,0.06,0.12,
2.975,2.61,-2.91,5.93,0.26,0.06,0.12,
2.976,2.61,-2.91,5.93,0.22,0.24,0.14,
2.981,2.60,-2.90,5.98,0.22,0.24,0.14,
2.982,2.60,-2.90,5.98,0.17,0.42,0.17,
2.985,2.55,-2.93,6.11,0.17,0.42,0.17,
2.985,2.55,-2.93,6.11,0.12,0.59,0.20,
2.995,2.55,-2.93,6.11,0.08,0.74,0.25,
2.996,2.62,-3.02,6.22,0.08,0.74,0.25,
2.996,2.85,-3.17,6.44,0.08,0.74,0.25,
2.997,2.85,-3.17,6.44,0.05,0.89,0.30,
2.999,2.85,-3.17,6.44,0.04,1.03,0.34,
3.0,3.24,-3.36,6.65,0.04,1.03,0.34,
3.016,3.24,-3.36,6.65,0.06,1.19,0.35,
3.017,3.61,-3.53,6.88,0.06,1.19,0.35,
3.017,3.88,-3.80,6.99,0.06,1.19,0.35,
3.018,3.88,-3.80,6.99,0.11,1.34,0.32,
3.018,3.85,-4.05,6.94,0.11,1.34,0.32,
3.018,3.85,-4.05,6.94,0.19,1.47,0.27,
3.02,3.65,-4.30,6.78,0.19,1.47,0.27,
3.021,3.65,-4.30,6.78,0.30,1.55,0.23,
3.024,3.40,-4.55,6.57,0.30,1.55,0.23,
3.025,3.40,-4.55,6.57,0.42,1.57,0.20,
3.029,3.31,-4.70,6.41,0.42,1.57,0.20,
3.029,3.31,-4.70,6.41,0.55,1.55,0.18,
3.034,3.26,-4.78,6.19,0.55,1.55,0.18,
3.034,3.26,-4.78,6.19,0.69,1.47,0.17,
3.038,3.25,-4.94,5.91,0.69,1.47,0.17,
3.039,3.25,-4.94,5.91,0.83,1.34,0.17,
3.043,3.25,-4.94,5.91,0.96,1.18,0.18,
3.044,3.03,-4.99,5.56,0.96,1.18,0.18,
3.048,3.03,-4.99,5.56,1.08,1.00,0.21,
3.048,2.49,-4.98,5.22,1.08,1.00,0.21,
3.053,2.49,-4.98,5.22,1.17,0.81,0.28,
3.053,2.06,-4.92,5.06,1.17,0.81,0.28,
3.063,1.85,-4.76,5.09,1.17,0.81,0.28,
3.064,1.85,-4.76,5.09,1.23,0.62,0.40,
3.065,1.94,-4.58,5.10,1.23,0.62,0.40,
3.065,1.94,-4.58,5.10,1.28,0.45,0.55,
3.068,2.28,-4.37,5.06,1.28,0.45,0.55,
3.068,2.28,-4.37,5.06,1.30,0.30,0.71,
3.089,2.97,-4.03,4.89,1.30,0.30,0.71,
3.09,2.97,-4.03,4.89,1.31,0.19,0.88,
3.09,3.85,-3.55,4.63,1.31,0.19,0.88,
3.091,3.85,-3.55,4.63,1.28,0.13,1.04,
3.091,3.85,-3.55,4.63,1.21,0.15,1.19,
3.092,4.91,-3.14,4.36,1.21,0.15,1.19,
3.092,4.91,-3.14,4.36,1.11,0.26,1.30,
3.092,5.96,-2.90,4.04,1.11,0.26,1.30,
3.093,5.96,-2.90,4.04,0.98,0.46,1.38,
3.13,7.01,-2.87,3.63,0.98,0.46,1.38,
3.13,7.85,-2.96,3.20,0.98,0.46,1.38,
3.131,7.85,-2.96,3.20,0.82,0.75,1.42,
3.131,8.34,-3.07,2.66,0.82,0.75,1.42,
3.132,8.34,-3.07,2.66,0.64,1.13,1.42,
3.132,8.91,-3.86,1.59,0.64,1.13,1.42,
3.132,8.91,-3.86,1.59,0.43,1.58,1.39,
3.133,8.41,-4.48,0.75,0.43,1.58,1.39,
3.133,8.41,-4.48,0.75,0.17,2.06,1.32,
3.133,7.28,-4.71,0.64,0.17,2.06,1.32,
3.134,7.28,-4.71,0.64,-0.13,2.56,1.25,
3.134,7.28,-4.71,0.64,-0.42,3.02,1.25,
3.135,6.29,-4.86,0.98,-0.42,3.02,1.25,
3.135,5.40,-5.01,1.65,-0.42,3.02,1.25,
3.136,5.40,-5.01,1.65,-0.67,3.39,1.32,
3.136,4.69,-5.29,2.39,-0.67,3.39,1.32,
3.136,4.69,-5.29,2.39,-0.88,3.62,1.42,
3.137,4.69,-5.29,2.39,-1.02,3.75,1.55,
3.137,3.97,-5.56,3.31,-1.02,3.75,1.55,
3.144,3.38,-5.93,4.17,-1.02,3.75,1.55,
3.145,3.38,-5.93,4.17,-1.09,3.79,1.71,
3.146,3.38,-5.93,4.17,-1.10,3.74,1.90,
3.147,2.98,-6.38,4.91,-1.10,3.74,1.90,
3.15,2.98,-6.38,4.91,-1.05,3.59,2.13,
3.151,2.62,-6.65,5.50,-1.05,3.59,2.13,
3.156,2.63,-6.76,5.85,-1.05,3.59,2.13,
3.157,2.63,-6.76,5.85,-0.96,3.37,2.37,
3.161,3.12,-6.86,6.10,-0.96,3.37,2.37,
3.161,3.12,-6.86,6.10,-0.85,3.11,2.63,
3.165,3.98,-7.04,6.33,-0.85,3.11,2.63,
3.166,3.98,-7.04,6.33,-0.74,2.86,2.88,
3.17,3.98,-7.04,6.33,-0.64,2.68,3.10,
3.171,5.06,-7.34,6.59,-0.64,2.68,3.10,
3.178,6.11,-7.56,6.72,-0.64,2.68,3.10,
3.179,6.11,-7.56,6.72,-0.55,2.58,3.29,
3.18,7.08,-7.70,6.83,-0.55,2.58,3.29,
3.18,7.08,-7.70,6.83,-0.48,2.55,3.45,
3.186,7.08,-7.70,6.83,-0.43,2.57,3.58,
3.186,7.90,-7.88,7.05,-0.43,2.57,3.58,
3.206,7.90,-7.88,7.05,-0.39,2.62,3.69,
3.207,8.73,-8.13,7.38,-0.39,2.62,3.69,
3.207,8.73,-8.13,7.38,-0.36,2.73,3.78,
3.208,9.57,-8.35,7.75,-0.36,2.73,3.78,
3.208,9.57,-8.35,7.75,-0.31,2.85,3.86,
3.209,10.23,-8.54,8.13,-0.31,2.85,3.86,
3.209,10.23,-8.54,8.13,-0.24,3.03,3.91,
3.21,10.53,-8.74,8.56,-0.24,3.03,3.91,
3.21,10.53,-8.74,8.56,-0.15,3.24,3.95,
3.211,10.39,-8.97,8.99,-0.15,3.24,3.95,
3.214,10.39,-8.97,8.99,-0.03,3.48,4.00,
3.215,9.77,-9.07,9.56,-0.03,3.48,4.00,
3.219,9.77,-9.07,9.56,0.13,3.74,4.06,
3.219,9.24,-9.12,10.40,0.13,3.74,4.06,
3.224,8.86,-9.28,11.42,0.13,3.74,4.06,
3.225,8.86,-9.28,11.42,0.35,3.99,4.16,
3.229,8.74,-9.58,12.39,0.35,3.99,4.16,
3.23,8.74,-9.58,12.39,0.66,4.16,4.29,
3.234,8.90,-10.03,12.91,0.66,4.16,4.29,
3.234,8.90,-10.03,12.91,1.08,4.24,4.44,
3.243,8.90,-10.03,12.91,1.57,4.21,4.58,
3.245,9.08,-10.40,12.64,1.57,4.21,4.58,
3.245,9.55,-10.62,11.57,1.57,4.21,4.58,
3.246,9.55,-10.62,11.57,2.12,4.11,4.72,
3.248,10.54,-10.69,9.83,2.12,4.11,4.72,
3.249,10.54,-10.69,9.83,2.65,3.95,4.83,
3.253,11.85,-10.67,7.61,2.65,3.95,4.83,
3.254,11.85,-10.67,7.61,3.14,3.75,4.90,
3.265,11.85,-10.67,7.61,3.56,3.56,4.91,
3.266,13.16,-10.62,5.21,3.56,3.56,4.91,
3.266,13.16,-10.62,5.21,3.90,3.37,4.86,
3.267,14.65,-10.56,2.57,3.90,3.37,4.86,
3.267,16.30,-10.28,-0.21,3.90,3.37,4.86,
3.268,16.30,-10.28,-0.21,4.15,3.16,4.76,
3.286,16.30,-10.28,-0.21,4.31,2.95,4.59,
3.287,17.89,-9.77,-2.91,4.31,2.95,4.59,
3.288,18.97,-9.12,-5.43,4.31,2.95,4.59,
3.288,18.97,-9.12,-5.43,4.36,2.78,4.36,
3.289,19.63,-8.53,-7.64,4.36,2.78,4.36,
3.289,19.63,-8.53,-7.64,4.31,2.65,4.05,
3.289,19.86,-8.12,-9.25,4.31,2.65,4.05,
3.29,19.86,-8.12,-9.25,4.17,2.57,3.71,
3.331,19.50,-7.82,-10.13,4.17,2.57,3.71,
3.332,19.50,-7.82,-10.13,3.98,2.55,3.36,
3.332,19.50,-7.82,-10.13,3.75,2.56,3.04,
3.333,17.18,-8.36,-10.45,3.75,2.56,3.04,
3.333,17.18,-8.36,-10.45,3.51,2.60,2.79,
3.334,16.50,-7.60,-9.94,3.51,2.60,2.79,
3.334,16.50,-7.60,-9.94,3.29,2.67,2.59,
3.335,15.89,-6.58,-9.05,3.29,2.67,2.59,
3.335,15.47,-5.51,-7.79,3.29,2.67,2.59,
3.335,15.47,-5.51,-7.79,3.14,2.73,2.40,
3.336,14.63,-4.88,-6.52,3.14,2.73,2.40,
3.336,14.63,-4.88,-6.52,3.04,2.69,2.24,
3.337,14.63,-4.88,-6.52,3.01,2.59,2.10,
3.337,11.59,-5.52,-5.39,3.01,2.59,2.10,
3.338,11.59,-5.52,-5.39,3.03,2.46,2.06,
3.338,9.13,-6.56,-5.73,3.03,2.46,2.06,
3.339,9.13,-6.56,-5.73,3.04,2.32,2.15,
3.339,8.19,-7.26,-6.69,3.04,2.32,2.15,
3.34,8.19,-7.26,-6.69,2.97,2.23,2.29,
3.366,8.39,-7.23,-7.42,2.97,2.23,2.29,
3.366,8.69,-6.73,-8.07,2.97,2.23,2.29,
3.367,8.69,-6.73,-8.07,2.83,2.19,2.44,
3.367,8.69,-6.73,-8.07,2.63,2.14,2.54,
3.367,8.92,-6.19,-8.83,2.63,2.14,2.54,
3.368,9.09,-5.85,-9.60,2.63,2.14,2.54,
3.368,9.09,-5.85,-9.60,2.38,2.11,2.62,
3.368,9.09,-5.85,-9.60,2.08,2.07,2.69,
3.369,7.92,-6.73,-11.02,2.08,2.07,2.69,
3.369,7.10,-6.09,-11.82,2.08,2.07,2.69,
3.369,7.10,-6.09,-11.82,1.69,2.05,2.82,
3.37,7.01,-4.80,-10.94,1.69,2.05,2.82,
3.37,7.01,-4.80,-10.94,1.23,2.07,2.97,
3.371,7.01,-4.80,-10.94,0.80,2.12,3.10,
3.371,7.95,-3.06,-8.76,0.80,2.12,3.10,
3.376,7.95,-3.06,-8.76,0.44,2.17,3.18,
3.376,8.65,-1.58,-6.91,0.44,2.17,3.18,
3.385,8.65,-1.58,-6.91,0.21,2.22,3.20,
3.385,9.03,-1.13,-5.92,0.21,2.22,3.20,
3.386,9.03,-1.13,-5.92,0.06,2.30,3.19,
3.386,9.44,-1.55,-5.86,0.06,2.30,3.19,
3.452,9.44,-1.55,-5.86,-0.06,2.39,3.19,
3.453,9.81,-2.26,-6.40,-0.06,2.39,3.19,
3.455,9.81,-2.26,-6.40,-0.21,2.50,3.16,
3.456,10.04,-2.80,-7.02,-0.21,2.50,3.16,
3.457,9.70,-2.81,-7.39,-0.21,2.50,3.16,
3.458,9.70,-2.81,-7.39,-0.40,2.63,3.11,
3.46,9.70,-2.81,-7.39,-0.64,2.78,3.07,
3.461,8.51,-2.29,-7.47,-0.64,2.78,3.07,
3.462,6.94,-1.75,-7.32,-0.64,2.78,3.07,
3.462,6.94,-1.75,-7.32,-0.90,2.91,3.08,
3.463,5.59,-1.71,-7.15,-0.90,2.91,3.08,
3.463,5.59,-1.71,-7.15,-1.19,3.03,3.16,
3.463,4.91,-2.25,-6.94,-1.19,3.03,3.16,
3.464,4.91,-2.25,-6.94,-1.49,3.14,3.30,
3.464,4.91,-2.25,-6.94,-1.80,3.23,3.49,
3.465,4.82,-2.95,-6.61,-1.80,3.23,3.49,
3.465,4.82,-2.95,-6.61,-2.13,3.29,3.69,
3.466,5.22,-3.40,-6.12,-2.13,3.29,3.69,
3.466,6.10,-3.68,-5.17,-2.13,3.29,3.69,
3.467,6.10,-3.68,-5.17,-2.45,3.32,3.87,
3.467,7.17,-3.98,-3.46,-2.45,3.32,3.87,
3.467,7.17,-3.98,-3.46,-2.74,3.32,4.01,
3.468,8.13,-4.21,-1.18,-2.74,3.32,4.01,
3.468,8.13,-4.21,-1.18,-2.94,3.30,4.09,
3.469,8.13,-4.21,-1.18,-3.02,3.22,4.13,
3.469,9.07,-4.24,1.29,-3.02,3.22,4.13,
3.47,9.07,-4.24,1.29,-2.95,3.06,4.12,
3.47,10.03,-4.16,3.50,-2.95,3.06,4.12,
3.471,10.03,-4.16,3.50,-2.74,2.82,4.06,
3.471,10.99,-4.07,5.32,-2.74,2.82,4.06,
3.472,10.99,-4.07,5.32,-2.41,2.52,3.96,
3.472,11.86,-4.02,6.65,-2.41,2.52,3.96,
3.473,11.86,-4.02,6.65,-2.00,2.17,3.81,
3.473,12.49,-3.80,7.56,-2.00,2.17,3.81,
3.474,12.74,-3.50,8.04,-2.00,2.17,3.81,
3.474,12.74,-3.50,8.04,-1.55,1.83,3.63,
3.483,12.80,-3.42,8.09,-1.55,1.83,3.63,
3.484,12.80,-3.42,8.09,-1.08,1.54,3.44,
3.484,12.78,-3.59,7.82,-1.08,1.54,3.44,
3.485,12.78,-3.59,7.82,-0.63,1.32,3.26,
3.495,12.78,-3.59,7.82,-0.22,1.16,3.09,
3.496,12.80,-3.94,7.25,-0.22,1.16,3.09,
3.496,12.80,-3.94,7.25,0.13,1.12,2.96,
3.497,12.74,-4.46,6.32,0.13,1.12,2.96,
3.498,12.55,-4.82,5.21,0.13,1.12,2.96,
3.499,12.55,-4.82,5.21,0.42,1.16,2.84,
3.516,12.55,-4.82,5.21,0.62,1.24,2.75,
3.517,12.37,-4.84,4.03,0.62,1.24,2.75,
3.518,12.37,-4.84,4.03,0.76,1.32,2.65,
3.518,12.12,-4.78,2.98,0.76,1.32,2.65,
3.518,12.12,-4.78,2.98,0.82,1.43,2.57,
3.519,11.77,-4.97,2.10,0.82,1.43,2.57,
3.519,11.22,-5.11,1.58,0.82,1.43,2.57,
3.519,11.22,-5.11,1.58,0.83,1.54,2.50,
3.522,11.22,-5.11,1.58,0.81,1.64,2.44,
3.523,10.58,-5.13,1.29,0.81,1.64,2.44,
3.53,10.58,-5.13,1.29,0.78,1.74,2.41,
3.531,10.03,-5.04,1.29,0.78,1.74,2.41,
3.531,10.03,-5.04,1.29,0.75,1.82,2.39,
3.532,9.60,-5.02,1.72,0.75,1.82,2.39,
3.536,9.08,-5.03,2.36,0.75,1.82,2.39,
3.536,9.08,-5.03,2.36,0.76,1.86,2.38,
3.548,8.67,-5.07,3.07,0.76,1.86,2.38,
3.549,8.67,-5.07,3.07,0.82,1.84,2.37,
3.549,8.67,-5.07,3.07,0.94,1.75,2.37,
3.549,8.52,-5.13,3.69,0.94,1.75,2.37,
3.551,8.68,-5.09,4.13,0.94,1.75,2.37,
3.551,8.68,-5.09,4.13,1.13,1.61,2.37,
3.572,8.68,-5.09,4.13,1.36,1.44,2.36,
3.573,9.06,-4.97,4.17,1.36,1.44,2.36,
3.574,9.71,-4.94,3.68,1.36,1.44,2.36,
3.574,9.71,-4.94,3.68,1.62,1.27,2.33,
3.574,10.43,-5.03,2.72,1.62,1.27,2.33,
3.575,10.43,-5.03,2.72,1.87,1.12,2.27,
3.575,10.89,-5.02,1.67,1.87,1.12,2.27,
3.576,10.89,-5.02,1.67,2.08,1.00,2.20,
3.576,10.89,-5.02,1.67,2.24,0.93,2.09,
3.576,10.92,-4.84,0.59,2.24,0.93,2.09,
3.58,10.92,-4.84,0.59,2.34,0.89,1.97,
3.611,10.60,-4.73,-0.41,2.34,0.89,1.97,
3.611,10.27,-4.88,-1.23,2.34,0.89,1.97,
3.612,10.27,-4.88,-1.23,2.39,0.88,1.87,
3.612,10.27,-4.88,-1.23,2.40,0.89,1.79,
3.612,9.97,-5.11,-1.87,2.40,0.89,1.79,
3.613,9.97,-5.11,-1.87,2.38,0.91,1.73,
3.613,9.50,-5.30,-2.32,2.38,0.91,1.73,
3.613,9.50,-5.30,-2.32,2.33,0.91,1.68,
3.614,8.77,-5.36,-2.57,2.33,0.91,1.68,
3.614,8.77,-5.36,-2.57,2.25,0.91,1.64,
3.614,7.89,-5.42,-2.54,2.25,0.91,1.64,
3.615,7.26,-5.55,-2.17,2.25,0.91,1.64,
3.615,7.26,-5.55,-2.17,2.17,0.92,1.64,
3.615,6.74,-5.75,-1.50,2.17,0.92,1.64,
3.615,6.74,-5.75,-1.50,2.09,0.97,1.68,
3.619,6.74,-5.75,-1.50,2.03,1.05,1.74,
3.62,6.30,-5.93,-0.72,2.03,1.05,1.74,
3.624,6.30,-5.93,-0.72,2.00,1.16,1.82,
3.624,6.11,-6.05,0.02,2.00,1.16,1.82,
3.629,6.11,-6.05,0.02,1.99,1.30,1.92,
3.629,6.30,-6.22,0.52,1.99,1.30,1.92,
3.634,6.30,-6.22,0.52,2.01,1.46,2.02,
3.634,6.61,-6.29,0.72,2.01,1.46,2.02,
3.638,7.06,-6.26,0.57,2.01,1.46,2.02,
3.638,7.06,-6.26,0.57,2.03,1.63,2.12,
3.646,7.06,-6.26,0.57,2.06,1.81,2.22,
3.647,7.59,-6.29,0.13,2.06,1.81,2.22,
3.648,7.59,-6.29,0.13,2.07,1.99,2.30,
3.648,8.27,-6.44,-0.45,2.07,1.99,2.30,
3.653,8.27,-6.44,-0.45,2.08,2.14,2.36,
3.654,8.89,-6.47,-1.05,2.08,2.14,2.36,
3.664,9.52,-6.41,-1.80,2.08,2.14,2.36,
3.664,9.52,-6.41,-1.80,2.10,2.23,2.41,
3.664,10.19,-6.24,-2.50,2.10,2.23,2.41,
3.665,10.19,-6.24,-2.50,2.12,2.25,2.43,
3.668,10.19,-6.24,-2.50,2.15,2.23,2.44,
3.668,10.97,-6.06,-3.26,2.15,2.23,2.44,
3.679,11.70,-5.90,-3.90,2.15,2.23,2.44,
3.68,11.70,-5.90,-3.90,2.18,2.18,2.40,
3.68,11.70,-5.90,-3.90,2.19,2.13,2.33,
3.68,11.93,-5.80,-4.38,2.19,2.13,2.33,
3.682,11.93,-5.80,-4.38,2.20,2.09,2.24,
3.682,11.59,-5.73,-4.47,2.20,2.09,2.24,
3.687,11.19,-5.58,-4.36,2.20,2.09,2.24,
3.688,11.19,-5.58,-4.36,2.20,2.07,2.17,
3.699,11.19,-5.58,-4.36,2.22,2.11,2.13,
3.699,10.71,-5.42,-4.13,2.22,2.11,2.13,
3.7,10.71,-5.42,-4.13,2.25,2.19,2.13,
3.7,10.10,-5.17,-3.86,2.25,2.19,2.13,
3.701,10.10,-5.17,-3.86,2.30,2.33,2.16,
3.702,9.35,-4.70,-3.91,2.30,2.33,2.16,
3.712,9.35,-4.70,-3.91,2.33,2.50,2.22,
3.713,8.46,-4.00,-4.54,2.33,2.50,2.22,
3.713,8.46,-4.00,-4.54,2.30,2.72,2.35,
3.713,7.61,-3.04,-5.74,2.30,2.72,2.35,
3.716,7.61,-3.04,-5.74,2.19,3.01,2.52,
3.716,7.16,-2.00,-7.38,2.19,3.01,2.52,
3.721,7.16,-2.00,-7.38,1.97,3.38,2.74,
3.722,7.18,-1.18,-9.04,1.97,3.38,2.74,
3.735,7.18,-1.18,-9.04,1.65,3.79,2.96,
3.736,7.58,-0.44,-10.54,1.65,3.79,2.96,
3.736,8.23,0.54,-11.75,1.65,3.79,2.96,
3.737,8.23,0.54,-11.75,1.22,4.23,3.18,
3.737,8.23,0.54,-11.75,0.72,4.68,3.38,
3.738,9.51,1.63,-12.43,0.72,4.68,3.38,
3.756,9.51,1.63,-12.43,0.18,5.09,3.52,
3.757,11.23,2.44,-12.40,0.18,5.09,3.52,
3.757,11.23,2.44,-12.40,-0.34,5.37,3.56,
3.758,13.00,2.87,-11.62,-0.34,5.37,3.56,
3.758,13.00,2.87,-11.62,-0.78,5.49,3.51,
3.759,14.57,3.06,-10.29,-0.78,5.49,3.51,
3.759,15.83,3.16,-8.70,-0.78,5.49,3.51,
3.76,15.83,3.16,-8.70,-1.08,5.41,3.37,
3.762,15.83,3.16,-8.70,-1.23,5.11,3.16,
3.762,16.94,3.43,-7.07,-1.23,5.11,3.16,
3.766,16.94,3.43,-7.07,-1.23,4.61,2.87,
3.766,17.79,3.95,-5.37,-1.23,4.61,2.87,
3.77,17.79,3.95,-5.37,-1.10,3.98,2.52,
3.77,18.21,4.36,-3.66,-1.10,3.98,2.52,
3.779,18.21,4.36,-3.66,-0.86,3.29,2.13,
3.78,18.20,4.28,-2.03,-0.86,3.29,2.13,
3.78,18.20,4.28,-2.03,-0.56,2.67,1.73,
3.781,17.59,3.91,-0.73,-0.56,2.67,1.73,
3.816,17.59,3.91,-0.73,-0.21,2.19,1.35,
3.816,16.48,3.39,0.41,-0.21,2.19,1.35,
3.817,16.48,3.39,0.41,0.15,1.85,1.03,
3.817,15.00,2.74,1.29,0.15,1.85,1.03,
3.818,15.00,2.74,1.29,0.48,1.63,0.77,
3.818,13.37,2.00,1.72,0.48,1.63,0.77,
3.819,13.37,2.00,1.72,0.77,1.53,0.59,
3.819,11.77,1.35,1.78,0.77,1.53,0.59,
3.819,11.77,1.35,1.78,1.01,1.51,0.46,
3.82,9.57,0.60,2.98,1.01,1.51,0.46,
3.82,9.57,0.60,2.98,1.26,1.58,0.42,
3.821,7.59,0.24,3.78,1.26,1.58,0.42,
3.821,6.37,0.03,3.03,1.26,1.58,0.42,
3.821,6.37,0.03,3.03,1.54,1.74,0.46,
3.822,6.37,0.03,3.03,1.78,1.98,0.57,
3.822,5.90,-0.44,1.88,1.78,1.98,0.57,
3.832,5.81,-0.99,1.13,1.78,1.98,0.57,
3.861,5.81,-0.99,1.13,1.95,2.20,0.70,
3.861,5.96,-1.03,0.12,1.95,2.20,0.70,
3.861,5.96,-1.03,0.12,2.09,2.42,0.85,
3.862,7.19,-0.65,-2.38,2.09,2.42,0.85,
3.862,7.19,-0.65,-2.38,2.17,2.65,0.98,
3.862,7.19,-0.65,-2.38,2.13,2.88,1.08,
3.863,8.64,-0.53,-4.21,2.13,2.88,1.08,
3.863,8.64,-0.53,-4.21,2.00,3.11,1.12,
3.863,9.62,-0.49,-5.05,2.00,3.11,1.12,
3.864,9.62,-0.49,-5.05,1.81,3.33,1.13,
3.864,9.92,-0.28,-5.30,1.81,3.33,1.13,
3.864,9.92,-0.28,-5.30,1.64,3.49,1.12,
3.865,9.83,0.01,-5.54,1.64,3.49,1.12,
3.865,9.54,0.32,-5.79,1.64,3.49,1.12,
3.865,9.54,0.32,-5.79,1.49,3.55,1.12,
3.866,8.99,0.70,-5.84,1.49,3.55,1.12,
3.866,8.99,0.70,-5.84,1.36,3.47,1.15,
3.871,8.44,1.01,-5.92,1.36,3.47,1.15,
3.872,8.44,1.01,-5.92,1.26,3.30,1.17,
3.873,8.25,1.23,-6.13,1.26,3.30,1.17,
3.873,8.25,1.23,-6.13,1.19,3.09,1.21,
3.877,8.57,1.34,-6.47,1.19,3.09,1.21,
3.878,8.57,1.34,-6.47,1.14,2.86,1.26,
3.883,9.37,1.53,-6.66,1.14,2.86,1.26,
3.884,9.37,1.53,-6.66,1.10,2.59,1.29,
3.887,10.27,1.90,-6.61,1.10,2.59,1.29,
3.888,10.27,1.90,-6.61,1.05,2.31,1.28,
3.903,10.27,1.90,-6.61,1.01,2.05,1.22,
3.903,10.69,2.42,-6.33,1.01,2.05,1.22,
3.904,10.69,2.42,-6.33,0.98,1.86,1.13,
3.904,10.58,2.74,-5.93,0.98,1.86,1.13,
3.905,10.58,2.74,-5.93,0.95,1.76,1.04,
3.905,9.98,2.87,-5.75,0.95,1.76,1.04,
3.907,9.98,2.87,-5.75,0.91,1.71,0.95,
3.907,8.95,2.92,-5.57,0.91,1.71,0.95,
3.929,8.95,2.92,-5.57,0.85,1.69,0.90,
3.93,7.91,2.99,-5.37,0.85,1.69,0.90,
3.93,6.96,3.17,-5.23,0.85,1.69,0.90,
3.93,6.96,3.17,-5.23,0.77,1.68,0.89,
3.931,6.35,3.41,-4.88,0.77,1.68,0.89,
3.931,6.35,3.41,-4.88,0.68,1.64,0.91,
3.931,6.11,3.59,-4.37,0.68,1.64,0.91,
3.932,6.11,3.59,-4.37,0.60,1.57,0.94,
3.932,6.11,3.59,-4.37,0.51,1.46,0.98,
3.932,6.32,3.73,-3.67,0.51,1.46,0.98,
3.949,6.92,3.97,-2.91,0.51,1.46,0.98,
3.949,6.92,3.97,-2.91,0.45,1.34,1.02,
3.95,6.92,3.97,-2.91,0.40,1.26,1.04,
3.95,7.79,4.37,-2.23,0.40,1.26,1.04,
3.95,7.79,4.37,-2.23,0.36,1.24,0.99,
3.951,8.40,4.57,-1.67,0.36,1.24,0.99,
3.951,8.40,4.57,-1.67,0.34,1.29,0.92,
3.951,8.70,4.40,-1.17,0.34,1.29,0.92,
3.955,8.70,4.40,-1.17,0.35,1.36,0.82,
3.955,8.97,4.04,-0.74,0.35,1.36,0.82,
3.96,8.97,4.04,-0.74,0.42,1.40,0.72,
3.961,9.42,3.80,-0.28,0.42,1.40,0.72,
3.965,9.42,3.80,-0.28,0.55,1.38,0.61,
3.965,9.91,3.77,0.03,0.55,1.38,0.61,
3.97,9.89,3.74,0.31,0.55,1.38,0.61,
3.97,9.89,3.74,0.31,0.76,1.26,0.47,
3.979,9.28,3.67,0.47,0.76,1.26,0.47,
3.98,9.28,3.67,0.47,1.03,1.02,0.32,
3.98,8.28,3.65,0.34,1.03,1.02,0.32,
3.98,8.28,3.65,0.34,1.35,0.68,0.19,
3.985,8.28,3.65,0.34,1.68,0.31,0.09,
3.985,7.26,3.65,-0.13,1.68,0.31,0.09,
3.998,7.26,3.65,-0.13,1.99,-0.04,0.04,
3.999,6.12,3.71,-0.79,1.99,-0.04,0.04,
3.999,6.12,3.71,-0.79,2.25,-0.35,0.03,
4.0,4.94,3.96,-1.70,2.25,-0.35,0.03,
4.0,3.85,4.33,-2.72,2.25,-0.35,0.03,
4.0,3.85,4.33,-2.72,2.43,-0.59,0.07,
4.004,3.37,4.59,-4.14,2.43,-0.59,0.07,
4.005,3.37,4.59,-4.14,2.52,-0.72,0.15,
4.009,3.50,4.80,-6.04,2.52,-0.72,0.15,
4.01,3.50,4.80,-6.04,2.48,-0.70,0.25,
4.014,3.65,4.97,-7.75,2.48,-0.70,0.25,
4.014,3.65,4.97,-7.75,2.31,-0.53,0.32,
4.018,3.59,4.80,-9.09,2.31,-0.53,0.32,
4.019,3.59,4.80,-9.09,2.04,-0.24,0.34,
4.024,3.12,4.43,-9.87,2.04,-0.24,0.34,
4.025,3.12,4.43,-9.87,1.68,0.14,0.35,
4.029,3.12,4.43,-9.87,1.30,0.52,0.37,
4.029,2.39,4.17,-10.12,1.30,0.52,0.37,
4.033,2.39,4.17,-10.12,0.93,0.85,0.41,
4.034,1.60,4.09,-9.91,0.93,0.85,0.41,
4.039,1.60,4.09,-9.91,0.61,1.07,0.46,
4.039,0.84,4.33,-9.25,0.61,1.07,0.46,
4.043,0.26,4.74,-8.17,0.61,1.07,0.46,
4.044,0.26,4.74,-8.17,0.35,1.18,0.52,
4.048,0.08,5.02,-6.96,0.35,1.18,0.52,
4.049,0.08,5.02,-6.96,0.17,1.20,0.60,
4.053,0.42,5.10,-6.03,0.17,1.20,0.60,
4.054,0.42,5.10,-6.03,0.07,1.18,0.67,
4.065,1.27,5.18,-5.69,0.07,1.18,0.67,
4.066,1.27,5.18,-5.69,0.04,1.15,0.74,
4.066,1.27,5.18,-5.69,0.04,1.09,0.76,
4.066,2.13,5.26,-5.60,0.04,1.09,0.76,
4.069,2.13,5.26,-5.60,0.06,1.03,0.74,
4.107,3.06,5.33,-5.45,0.06,1.03,0.74,
4.108,3.06,5.33,-5.45,0.09,0.98,0.68,
4.108,3.92,5.36,-5.20,0.09,0.98,0.68,
4.108,3.92,5.36,-5.20,0.12,0.92,0.59,
4.109,4.45,5.44,-5.03,0.12,0.92,0.59,
4.109,4.45,5.44,-5.03,0.16,0.84,0.49,
4.109,4.57,5.44,-5.02,0.16,0.84,0.49,
4.11,4.57,5.44,-5.02,0.18,0.74,0.38,
4.11,4.43,5.27,-5.07,0.18,0.74,0.38,
4.11,4.26,5.05,-5.13,0.18,0.74,0.38,
4.11,4.26,5.05,-5.13,0.18,0.66,0.28,
4.111,3.99,4.86,-5.03,0.18,0.66,0.28,
4.111,3.99,4.86,-5.03,0.17,0.57,0.19,
4.111,3.60,4.74,-4.72,0.17,0.57,0.19,
4.112,3.60,4.74,-4.72,0.13,0.49,0.10,
4.112,3.08,4.58,-4.28,0.13,0.49,0.10,
4.112,3.08,4.58,-4.28,0.08,0.43,0.02,
4.113,2.33,4.36,-3.83,0.08,0.43,0.02,
4.113,2.33,4.36,-3.83,0.03,0.39,-0.04,
4.118,1.53,4.02,-3.34,0.03,0.39,-0.04,
4.119,1.53,4.02,-3.34,-0.02,0.38,-0.08,
4.121,0.73,3.70,-2.95,-0.02,0.38,-0.08,
4.122,0.73,3.70,-2.95,-0.05,0.39,-0.09,
4.126,0.00,3.37,-2.57,-0.05,0.39,-0.09,
4.127,0.00,3.37,-2.57,-0.07,0.43,-0.08,
4.131,-0.56,3.11,-2.25,-0.07,0.43,-0.08,
4.132,-0.56,3.11,-2.25,-0.08,0.47,-0.04,
4.136,-1.15,2.86,-1.93,-0.08,0.47,-0.04,
4.136,-1.15,2.86,-1.93,-0.07,0.50,0.01,
4.142,-1.71,2.69,-1.62,-0.07,0.50,0.01,
4.143,-1.71,2.69,-1.62,-0.04,0.51,0.09,
4.146,-2.08,2.48,-1.39,-0.04,0.51,0.09,
4.146,-2.08,2.48,-1.39,0.00,0.52,0.17,
4.15,-2.24,2.27,-1.23,0.00,0.52,0.17,
4.151,-2.24,2.27,-1.23,0.06,0.53,0.28,
4.155,-1.95,2.13,-1.17,0.06,0.53,0.28,
4.155,-1.95,2.13,-1.17,0.12,0.54,0.40,
4.167,-1.43,2.00,-1.18,0.12,0.54,0.40,
4.167,-1.43,2.00,-1.18,0.19,0.54,0.52,
4.168,-0.94,1.93,-1.22,0.19,0.54,0.52,
4.168,-0.94,1.93,-1.22,0.26,0.54,0.61,
4.17,-0.94,1.93,-1.22,0.32,0.53,0.68,
4.17,-0.43,1.88,-1.24,0.32,0.53,0.68,
4.195,-0.43,1.88,-1.24,0.38,0.52,0.73,
4.196,0.23,1.88,-1.22,0.38,0.52,0.73,
4.196,1.05,1.94,-1.05,0.38,0.52,0.73,
4.197,1.05,1.94,-1.05,0.45,0.49,0.76,
4.197,1.79,2.02,-0.82,0.45,0.49,0.76,
4.198,1.79,2.02,-0.82,0.53,0.43,0.76,
4.198,2.26,2.01,-0.72,0.53,0.43,0.76,
4.198,2.26,2.01,-0.72,0.62,0.37,0.72,
4.199,2.26,2.01,-0.72,0.71,0.29,0.67,
4.199,2.34,1.97,-0.78,0.71,0.29,0.67,
4.199,2.34,1.97,-0.78,0.79,0.20,0.61,
4.2,2.18,1.87,-0.95,0.79,0.20,0.61,
4.204,1.84,1.72,-1.07,0.79,0.20,0.61,
4.205,1.84,1.72,-1.07,0.85,0.12,0.56,
4.209,1.53,1.51,-1.16,0.85,0.12,0.56,
4.21,1.53,1.51,-1.16,0.89,0.05,0.52,
4.214,1.17,1.39,-1.13,0.89,0.05,0.52,
4.215,1.17,1.39,-1.13,0.90,-0.01,0.49,
4.219,0.87,1.28,-1.03,0.90,-0.01,0.49,
4.219,0.87,1.28,-1.03,0.90,-0.05,0.48,
4.225,0.56,1.24,-0.97,0.90,-0.05,0.48,
4.226,0.56,1.24,-0.97,0.88,-0.07,0.48,
4.229,0.28,1.20,-0.96,0.88,-0.07,0.48,
4.23,0.28,1.20,-0.96,0.85,-0.07,0.49,
4.234,-0.10,1.09,-0.86,0.85,-0.07,0.49,
4.234,-0.10,1.09,-0.86,0.80,-0.04,0.52,
4.238,-0.48,0.89,-0.70,0.80,-0.04,0.52,
4.239,-0.48,0.89,-0.70,0.75,-0.00,0.56,
4.244,-0.48,0.89,-0.70,0.70,0.02,0.61,
4.245,-0.77,0.67,-0.61,0.70,0.02,0.61,
4.248,-0.77,0.67,-0.61,0.65,0.05,0.67,
4.249,-1.14,0.46,-0.48,0.65,0.05,0.67,
4.253,-1.14,0.46,-0.48,0.60,0.07,0.75,
4.253,-1.17,0.30,-0.40,0.60,0.07,0.75,
4.337,-1.17,0.30,-0.40,0.56,0.11,0.84,
4.338,-0.74,0.29,-0.35,0.56,0.11,0.84,
4.338,-0.74,0.29,-0.35,0.53,0.15,0.92,
4.339,-0.24,0.38,-0.30,0.53,0.15,0.92,
4.339,0.26,0.46,-0.16,0.53,0.15,0.92,
4.341,0.26,0.46,-0.16,0.49,0.19,0.97,
4.341,0.82,0.60,-0.04,0.49,0.19,0.97,
4.342,0.82,0.60,-0.04,0.47,0.21,0.99,
4.342,1.64,0.79,-0.18,0.47,0.21,0.99,
4.342,1.64,0.79,-0.18,0.44,0.22,0.97,
4.343,1.64,0.79,-0.18,0.42,0.20,0.92,
4.343,2.56,0.91,-0.57,0.42,0.20,0.92,
4.343,3.59,0.95,-0.98,0.42,0.20,0.92,
4.344,3.59,0.95,-0.98,0.37,0.16,0.83,
4.344,4.48,0.87,-1.30,0.37,0.16,0.83,
4.345,4.48,0.87,-1.30,0.31,0.13,0.67,
4.345,4.48,0.87,-1.30,0.21,0.09,0.46,
4.345,4.77,0.53,-1.38,0.21,0.09,0.46,
4.346,4.22,0.25,-1.14,0.21,0.09,0.46,
4.346,4.22,0.25,-1.14,0.11,0.07,0.22,
4.346,4.22,0.25,-1.14,0.02,0.04,0.01,
4.347,2.77,0.05,-0.56,0.02,0.04,0.01,
4.347,2.77,0.05,-0.56,-0.08,-0.01,-0.13,
4.374,0.91,-0.22,0.14,-0.08,-0.01,-0.13,
4.374,0.91,-0.22,0.14,-0.16,-0.05,-0.19,
4.375,-0.40,-0.84,0.81,-0.16,-0.05,-0.19,
4.375,-0.40,-0.84,0.81,-0.22,-0.06,-0.19,
4.376,-1.14,-1.43,1.27,-0.22,-0.06,-0.19,
4.376,-1.69,-1.92,1.72,-0.22,-0.06,-0.19,
4.377,-1.69,-1.92,1.72,-0.28,-0.04,-0.17,
4.377,-1.69,-1.92,1.72,-0.32,0.01,-0.12,
4.378,-2.22,-2.29,2.14,-0.32,0.01,-0.12,
4.378,-2.22,-2.29,2.14,-0.35,0.09,-0.05,
4.378,-2.56,-2.49,2.59,-0.35,0.09,-0.05,
4.379,-2.68,-2.53,3.00,-0.35,0.09,-0.05,
4.379,-2.68,-2.53,3.00,-0.37,0.18,0.04,
4.38,-2.46,-2.34,2.93,-0.37,0.18,0.04,
4.38,-2.46,-2.34,2.93,-0.37,0.26,0.12,
4.381,-2.46,-2.34,2.93,-0.35,0.26,0.19,
4.381,-1.56,-1.83,1.87,-0.35,0.26,0.19,
4.381,-1.56,-1.83,1.87,-0.33,0.12,0.20,
4.382,0.25,-0.85,-0.60,-0.33,0.12,0.20,
4.382,0.25,-0.85,-0.60,-0.35,-0.27,0.09,
4.383,4.94,0.55,-5.22,-0.35,-0.27,0.09,
4.383,4.94,0.55,-5.22,-0.42,-1.03,-0.19,
4.383,8.97,2.22,-8.69,-0.42,-1.03,-0.19,
4.384,8.22,3.75,-8.50,-0.42,-1.03,-0.19,
4.385,8.22,3.75,-8.50,-0.52,-1.81,-0.61,
4.385,8.22,3.75,-8.50,-0.59,-2.15,-1.05,
4.385,5.81,3.84,-6.72,-0.59,-2.15,-1.05,
4.386,5.81,3.84,-6.72,-0.68,-2.11,-1.39,
4.386,1.88,2.76,-4.98,-0.68,-2.11,-1.39,
4.387,1.88,2.76,-4.98,-0.81,-1.82,-1.51,
4.387,-2.51,1.53,-4.07,-0.81,-1.82,-1.51,
4.395,-4.76,0.90,-4.25,-0.81,-1.82,-1.51,
4.395,-4.76,0.90,-4.25,-0.98,-1.41,-1.37,
4.396,-4.76,0.90,-4.25,-1.19,-1.03,-1.10,
4.396,-4.29,1.25,-4.80,-1.19,-1.03,-1.10,
4.399,-2.30,1.93,-5.03,-1.19,-1.03,-1.10,
4.4,-2.30,1.93,-5.03,-1.41,-0.79,-0.87,
4.404,-2.30,1.93,-5.03,-1.61,-0.67,-0.78,
4.405,-0.71,2.22,-4.58,-1.61,-0.67,-0.78,
4.409,-0.71,2.22,-4.58,-1.76,-0.64,-0.79,
4.41,-0.41,2.13,-3.35,-1.76,-0.64,-0.79,
4.414,-0.96,1.77,-1.80,-1.76,-0.64,-0.79,
4.414,-0.96,1.77,-1.80,-1.83,-0.62,-0.78,
4.419,-0.96,1.77,-1.80,-1.84,-0.59,-0.73,
4.419,-1.22,1.43,-0.50,-1.84,-0.59,-0.73,
4.43,-0.75,1.10,0.34,-1.84,-0.59,-0.73,
4.431,-0.75,1.10,0.34,-1.82,-0.51,-0.63,
4.431,0.01,0.90,0.83,-1.82,-0.51,-0.63,
4.431,0.01,0.90,0.83,-1.78,-0.40,-0.53,
4.433,0.01,0.90,0.83,-1.73,-0.26,-0.47,
4.434,0.48,0.66,1.22,-1.73,-0.26,-0.47,
4.439,0.80,0.33,2.05,-1.73,-0.26,-0.47,
4.44,0.80,0.33,2.05,-1.68,-0.14,-0.44,
4.45,0.97,-0.03,3.51,-1.68,-0.14,-0.44,
4.451,0.97,-0.03,3.51,-1.57,-0.03,-0.43,
4.452,1.15,-0.29,5.34,-1.57,-0.03,-0.43,
4.452,1.15,-0.29,5.34,-1.40,0.01,-0.42,
4.452,1.30,-0.66,6.73,-1.40,0.01,-0.42,
4.454,1.30,-0.66,6.73,-1.13,-0.01,-0.41,
4.462,1.29,-1.03,7.32,-1.13,-0.01,-0.41,
4.463,1.29,-1.03,7.32,-0.77,-0.09,-0.41,
4.463,1.13,-1.38,7.09,-0.77,-0.09,-0.41,
4.463,1.13,-1.38,7.09,-0.38,-0.22,-0.44,
4.467,1.13,-1.38,7.09,-0.01,-0.38,-0.46,
4.468,0.98,-1.60,6.60,-0.01,-0.38,-0.46,
4.472,0.98,-1.60,6.60,0.33,-0.55,-0.49,
4.472,0.90,-1.66,5.96,0.33,-0.55,-0.49,
4.477,0.90,-1.66,5.96,0.62,-0.69,-0.51,
4.478,0.92,-1.61,5.10,0.62,-0.69,-0.51,
4.482,1.74,-1.26,3.84,0.62,-0.69,-0.51,
4.483,1.74,-1.26,3.84,0.86,-0.79,-0.54,
4.487,1.74,-1.26,3.84,1.05,-0.84,-0.62,
4.488,0.74,-1.31,2.04,1.05,-0.84,-0.62,
4.499,0.74,-1.31,2.04,1.15,-0.87,-0.66,
4.5,-0.18,-1.23,0.67,1.15,-0.87,-0.66,
4.501,-0.18,-1.23,0.67,1.18,-0.87,-0.65,
4.501,-0.14,-1.12,-0.31,1.18,-0.87,-0.65,
4.503,-0.14,-1.12,-0.31,1.18,-0.84,-0.64,
4.504,-0.27,-0.79,-0.98,1.18,-0.84,-0.64,
4.506,-0.51,-0.53,-1.28,1.18,-0.84,-0.64,
4.507,-0.51,-0.53,-1.28,1.15,-0.77,-0.63,
4.528,-0.51,-0.53,-1.28,1.12,-0.67,-0.60,
4.529,-0.34,-0.11,-1.17,1.12,-0.67,-0.60,
4.53,-0.34,-0.11,-1.17,1.12,-0.56,-0.58,
4.53,-0.40,0.21,-1.21,1.12,-0.56,-0.58,
4.531,-0.40,0.21,-1.21,1.12,-0.44,-0.55,
4.531,-0.63,0.49,-1.22,1.12,-0.44,-0.55,
4.532,-0.90,0.52,-1.16,1.12,-0.44,-0.55,
4.532,-0.90,0.52,-1.16,1.14,-0.32,-0.49,
4.533,-0.90,0.52,-1.16,1.16,-0.21,-0.41,
4.533,-1.26,0.71,-0.79,1.16,-0.21,-0.41,
4.537,-1.53,0.88,-0.60,1.16,-0.21,-0.41,
4.538,-1.53,0.88,-0.60,1.20,-0.09,-0.30,
4.541,-1.80,1.14,-0.71,1.20,-0.09,-0.30,
4.542,-1.80,1.14,-0.71,1.24,-0.00,-0.16,
4.546,-1.16,1.45,-0.92,1.24,-0.00,-0.16,
4.547,-1.16,1.45,-0.92,1.27,0.08,-0.00,
4.551,-0.40,1.66,-1.26,1.27,0.08,-0.00,
4.551,-0.40,1.66,-1.26,1.25,0.18,0.14,
4.555,-0.75,1.44,-1.63,1.25,0.18,0.14,
4.592,-0.75,1.44,-1.63,1.19,0.31,0.23,
4.592,-0.75,1.44,-1.63,1.08,0.46,0.34,
4.593,-0.41,1.23,-1.61,1.08,0.46,0.34,
4.593,-0.43,1.21,-1.67,1.08,0.46,0.34,
4.594,-0.43,1.21,-1.67,0.98,0.64,0.45,
4.594,-1.07,1.30,-1.45,0.98,0.64,0.45,
4.594,-1.07,1.30,-1.45,0.89,0.81,0.58,
4.595,-0.87,1.05,-1.23,0.89,0.81,0.58,
4.595,-0.87,1.05,-1.23,0.80,0.95,0.75,
4.595,-0.27,0.96,-1.07,0.80,0.95,0.75,
4.595,-0.27,0.96,-1.07,0.73,1.05,0.92,
4.596,0.46,1.03,-0.82,0.73,1.05,0.92,
4.596,0.46,1.03,-0.82,0.68,1.14,1.06,
4.596,-1.28,1.68,2.06,0.68,1.14,1.06,
4.597,-1.28,1.68,2.06,0.68,1.29,1.20,
4.597,1.40,0.92,0.01,0.68,1.29,1.20,
4.597,1.40,0.92,0.01,0.78,1.46,1.41,
4.601,1.40,0.92,0.01,0.86,1.34,1.60,
4.602,6.25,-0.15,-1.75,0.86,1.34,1.60,
4.604,10.59,-0.01,-3.65,0.86,1.34,1.60,
4.604,10.59,-0.01,-3.65,0.90,1.17,1.60,
4.616,12.58,1.23,-7.68,0.90,1.17,1.60,
4.616,12.58,1.23,-7.68,0.91,0.91,1.40,
4.617,15.46,3.00,-9.60,0.91,0.91,1.40,
4.617,15.46,3.00,-9.60,0.84,0.26,1.04,
4.619,15.46,3.00,-9.60,0.69,-0.40,0.55,
4.619,15.70,2.83,-9.29,0.69,-0.40,0.55,
4.623,15.70,2.83,-9.29,0.48,-0.83,0.03,
4.624,14.10,1.84,-8.53,0.48,-0.83,0.03,
4.638,14.10,1.84,-8.53,0.23,-1.07,-0.40,
4.639,10.68,1.17,-6.14,0.23,-1.07,-0.40,
4.639,10.68,1.17,-6.14,0.01,-1.03,-0.64,
4.64,6.94,1.33,-4.31,0.01,-1.03,-0.64,
4.64,6.94,1.33,-4.31,-0.15,-0.82,-0.68,
4.641,4.97,1.31,-3.04,-0.15,-0.82,-0.68,
4.651,3.91,0.93,-2.25,-0.15,-0.82,-0.68,
4.652,3.91,0.93,-2.25,-0.29,-0.56,-0.59,
4.652,2.71,0.72,-1.82,-0.29,-0.56,-0.59,
4.653,2.71,0.72,-1.82,-0.44,-0.34,-0.44,
4.654,2.71,0.72,-1.82,-0.58,-0.16,-0.26,
4.655,2.26,0.51,-1.85,-0.58,-0.16,-0.26,
4.658,2.26,0.51,-1.85,-0.74,-0.05,-0.10,
4.659,2.92,0.26,-1.87,-0.74,-0.05,-0.10,
4.674,3.88,0.21,-1.74,-0.74,-0.05,-0.10,
4.674,3.88,0.21,-1.74,-0.91,-0.01,0.03,
4.675,3.88,0.21,-1.74,-1.08,0.01,0.09,
4.675,4.49,0.20,-1.49,-1.08,0.01,0.09,
4.676,4.49,0.20,-1.49,-1.22,0.07,0.13,
4.676,4.93,0.09,-1.11,-1.22,0.07,0.13,
4.678,4.93,0.09,-1.11,-1.34,0.14,0.16,
4.679,5.28,0.03,-0.84,-1.34,0.14,0.16,
4.682,5.28,0.03,-0.84,-1.44,0.24,0.17,
4.682,5.72,0.07,-0.71,-1.44,0.24,0.17,
4.687,5.72,0.07,-0.71,-1.53,0.34,0.16,
4.687,6.23,0.22,-0.81,-1.53,0.34,0.16,
4.691,6.23,0.22,-0.81,-1.61,0.42,0.13,
4.692,6.85,0.40,-0.97,-1.61,0.42,0.13,
4.697,7.35,0.56,-1.01,-1.61,0.42,0.13,
4.697,7.35,0.56,-1.01,-1.68,0.46,0.06,
4.702,7.57,0.67,-1.02,-1.68,0.46,0.06,
4.703,7.57,0.67,-1.02,-1.72,0.48,-0.03,
4.707,7.47,0.70,-1.01,-1.72,0.48,-0.03,
4.708,7.47,0.70,-1.01,-1.74,0.49,-0.15,
4.723,7.47,0.70,-1.01,-1.74,0.46,-0.26,
4.724,7.11,0.79,-1.01,-1.74,0.46,-0.26,
4.724,6.67,0.84,-1.00,-1.74,0.46,-0.26,
4.725,6.67,0.84,-1.00,-1.73,0.42,-0.36,
4.725,6.29,0.91,-1.04,-1.73,0.42,-0.36,
4.726,6.29,0.91,-1.04,-1.70,0.35,-0.44,
4.727,6.29,0.91,-1.04,-1.67,0.28,-0.51,
4.727,5.92,0.95,-1.12,-1.67,0.28,-0.51,
4.795,5.92,0.95,-1.12,-1.64,0.21,-0.58,
4.795,5.50,1.02,-1.27,-1.64,0.21,-0.58,
4.796,5.50,1.02,-1.27,-1.62,0.15,-0.63,
4.796,5.18,1.13,-1.53,-1.62,0.15,-0.63,
4.797,5.18,1.13,-1.53,-1.62,0.13,-0.67,
4.797,4.99,1.26,-1.96,-1.62,0.13,-0.67,
4.798,4.79,1.47,-2.42,-1.62,0.13,-0.67,
4.798,4.79,1.47,-2.42,-1.64,0.12,-0.69,
4.799,4.67,1.51,-2.84,-1.64,0.12,-0.69,
4.799,4.67,1.51,-2.84,-1.69,0.15,-0.70,
4.8,4.59,1.63,-3.46,-1.69,0.15,-0.70,
4.8,4.59,1.63,-3.46,-1.76,0.21,-0.71,
4.801,4.10,1.95,-3.34,-1.76,0.21,-0.71,
4.801,4.10,1.95,-3.34,-1.85,0.29,-0.72,
4.802,3.89,2.24,-3.41,-1.85,0.29,-0.72,
4.802,3.89,2.24,-3.41,-1.94,0.40,-0.72,
4.802,4.13,2.31,-3.65,-1.94,0.40,-0.72,
4.803,4.13,2.31,-3.65,-2.02,0.49,-0.72,
4.803,4.36,2.21,-3.64,-2.02,0.49,-0.72,
4.804,4.36,2.21,-3.64,-2.09,0.56,-0.73,
4.804,4.27,2.14,-3.54,-2.09,0.56,-0.73,
4.805,4.27,2.14,-3.54,-2.15,0.63,-0.76,
4.805,4.06,2.09,-3.46,-2.15,0.63,-0.76,
4.806,4.06,2.09,-3.46,-2.17,0.71,-0.79,
4.806,4.02,2.11,-3.43,-2.17,0.71,-0.79,
4.807,4.02,2.11,-3.43,-2.18,0.77,-0.83,
4.807,4.02,2.11,-3.43,-2.17,0.80,-0.88,
4.808,4.22,2.19,-3.60,-2.17,0.80,-0.88,
4.808,4.22,2.19,-3.60,-2.15,0.78,-0.92,
4.836,4.50,2.24,-3.82,-2.15,0.78,-0.92,
4.836,4.50,2.24,-3.82,-2.12,0.73,-0.97,
4.837,4.82,2.31,-4.07,-2.12,0.73,-0.97,
4.837,4.82,2.31,-4.07,-2.09,0.65,-1.04,
4.838,5.23,2.28,-4.45,-2.09,0.65,-1.04,
4.838,5.61,2.25,-4.76,-2.09,0.65,-1.04,
4.838,5.61,2.25,-4.76,-2.06,0.53,-1.13,
4.839,5.80,2.20,-4.95,-2.06,0.53,-1.13,
4.839,5.80,2.20,-4.95,-2.06,0.38,-1.22,
4.84,6.02,2.13,-4.86,-2.06,0.38,-1.22,
4.84,6.02,2.13,-4.86,-2.06,0.24,-1.31,
4.84,6.24,2.00,-4.43,-2.06,0.24,-1.31,
4.841,6.24,2.00,-4.43,-2.06,0.12,-1.40,
4.841,6.26,2.00,-3.72,-2.06,0.12,-1.40,
4.842,6.26,2.00,-3.72,-2.04,0.03,-1.49,
4.842,5.90,1.97,-3.02,-2.04,0.03,-1.49,
4.843,5.90,1.97,-3.02,-1.99,-0.04,-1.56,
4.843,5.52,2.19,-2.35,-1.99,-0.04,-1.56,
4.844,5.52,2.19,-2.35,-1.91,-0.08,-1.61,
4.85,5.53,2.35,-1.90,-1.91,-0.08,-1.61,
4.851,5.53,2.35,-1.90,-1.79,-0.10,-1.64,
4.854,5.53,2.35,-1.90,-1.63,-0.11,-1.69,
4.854,5.57,2.46,-1.72,-1.63,-0.11,-1.69,
4.858,5.57,2.46,-1.72,-1.46,-0.13,-1.75,
4.858,5.40,2.57,-1.76,-1.46,-0.13,-1.75,
4.874,5.24,2.76,-2.06,-1.46,-0.13,-1.75,
4.874,5.24,2.76,-2.06,-1.27,-0.15,-1.80,
4.875,5.24,2.76,-2.06,-1.09,-0.18,-1.85,
4.875,5.16,2.92,-2.59,-1.09,-0.18,-1.85,
4.876,5.00,3.13,-3.16,-1.09,-0.18,-1.85,
4.876,5.00,3.13,-3.16,-0.91,-0.23,-1.89,
4.9,5.00,3.13,-3.16,-0.74,-0.29,-1.94,
4.901,4.81,3.39,-3.71,-0.74,-0.29,-1.94,
4.901,4.66,3.63,-4.35,-0.74,-0.29,-1.94,
4.902,4.66,3.63,-4.35,-0.59,-0.36,-1.98,
4.902,4.49,3.88,-5.07,-0.59,-0.36,-1.98,
4.902,4.49,3.88,-5.07,-0.47,-0.44,-2.03,
4.903,4.49,3.88,-5.07,-0.38,-0.53,-2.09,
4.903,4.34,4.02,-5.80,-0.38,-0.53,-2.09,
4.903,4.20,4.10,-6.45,-0.38,-0.53,-2.09,
4.904,4.20,4.10,-6.45,-0.33,-0.62,-2.14,
4.904,4.20,4.10,-6.45,-0.31,-0.73,-2.20,
4.904,4.50,4.01,-7.44,-0.31,-0.73,-2.20,
4.907,4.50,4.01,-7.44,-0.34,-0.84,-2.26,
4.907,3.76,4.17,-7.28,-0.34,-0.84,-2.26,
4.912,3.76,4.17,-7.28,-0.38,-0.90,-2.30,
4.912,3.29,4.31,-7.00,-0.38,-0.90,-2.30,
4.916,3.29,4.31,-7.00,-0.41,-0.94,-2.32,
4.917,3.81,4.27,-7.41,-0.41,-0.94,-2.32,
4.921,3.93,4.25,-7.20,-0.41,-0.94,-2.32,
4.921,3.93,4.25,-7.20,-0.45,-1.00,-2.33,
4.931,3.68,4.30,-6.83,-0.45,-1.00,-2.33,
4.932,3.68,4.30,-6.83,-0.49,-1.04,-2.35,
4.933,4.01,4.23,-6.91,-0.49,-1.04,-2.35,
4.933,4.01,4.23,-6.91,-0.50,-1.05,-2.37,
4.935,4.01,4.23,-6.91,-0.51,-1.06,-2.39,
4.936,4.59,4.01,-7.21,-0.51,-1.06,-2.39,
4.94,4.33,4.02,-6.78,-0.51,-1.06,-2.39,
4.941,4.33,4.02,-6.78,-0.53,-1.10,-2.43,
4.951,4.13,4.08,-6.64,-0.53,-1.10,-2.43,
4.952,4.13,4.08,-6.64,-0.54,-1.11,-2.48,
4.953,4.44,3.93,-6.91,-0.54,-1.11,-2.48,
4.953,4.44,3.93,-6.91,-0.54,-1.15,-2.51,
4.955,5.14,3.46,-7.37,-0.54,-1.15,-2.51,
4.956,5.14,3.46,-7.37,-0.56,-1.23,-2.54,
4.96,5.14,3.46,-7.37,-0.61,-1.34,-2.58,
4.961,4.98,3.25,-7.09,-0.61,-1.34,-2.58,
4.965,4.98,3.25,-7.09,-0.64,-1.43,-2.62,
4.966,4.81,3.05,-6.78,-0.64,-1.43,-2.62,
4.97,5.11,2.66,-7.10,-0.64,-1.43,-2.62,
4.97,5.11,2.66,-7.10,-0.66,-1.51,-2.65,
4.974,5.48,2.10,-7.35,-0.66,-1.51,-2.65,
4.975,5.48,2.10,-7.35,-0.70,-1.61,-2.66,
4.98,5.43,1.42,-7.39,-0.70,-1.61,-2.66,
4.98,5.43,1.42,-7.39,-0.77,-1.70,-2.68,
4.984,5.10,0.82,-7.34,-0.77,-1.70,-2.68,
4.985,5.10,0.82,-7.34,-0.85,-1.77,-2.70,
4.989,4.71,0.26,-7.22,-0.85,-1.77,-2.70,
4.99,4.71,0.26,-7.22,-0.93,-1.83,-2.69,
4.995,4.71,0.26,-7.22,-1.01,-1.90,-2.66,
4.996,4.23,-0.21,-6.90,-1.01,-1.90,-2.66,
4.999,3.79,-0.64,-6.45,-1.01,-1.90,-2.66,
5.0,3.79,-0.64,-6.45,-1.07,-2.01,-2.61,
5.004,3.61,-0.84,-6.00,-1.07,-2.01,-2.61,
5.005,3.61,-0.84,-6.00,-1.11,-2.17,-2.53,
5.009,3.61,-0.84,-6.00,-1.14,-2.36,-2.43,
5.009,3.75,-0.96,-5.66,-1.14,-2.36,-2.43,
5.014,3.75,-0.96,-5.66,-1.15,-2.57,-2.34,
5.015,4.24,-1.07,-5.54,-1.15,-2.57,-2.34,
5.019,4.92,-1.23,-5.63,-1.15,-2.57,-2.34,
5.019,4.92,-1.23,-5.63,-1.18,-2.77,-2.25,
5.024,5.64,-1.50,-5.81,-1.18,-2.77,-2.25,
5.024,5.64,-1.50,-5.81,-1.23,-2.93,-2.19,
5.037,5.64,-1.50,-5.81,-1.32,-3.05,-2.14,
5.038,6.41,-1.86,-5.99,-1.32,-3.05,-2.14,
5.039,7.20,-2.20,-6.06,-1.32,-3.05,-2.14,
5.04,7.20,-2.20,-6.06,-1.44,-3.12,-2.12,
5.04,7.96,-2.51,-5.85,-1.44,-3.12,-2.12,
5.041,7.96,-2.51,-5.85,-1.60,-3.14,-2.11,
5.044,8.50,-2.82,-5.50,-1.60,-3.14,-2.11,
5.084,8.50,-2.82,-5.50,-1.78,-3.11,-2.12,
5.084,8.93,-3.22,-5.11,-1.78,-3.11,-2.12,
5.085,8.93,-3.22,-5.11,-1.96,-3.05,-2.15,
5.085,9.36,-3.58,-4.85,-1.96,-3.05,-2.15,
5.085,9.36,-3.58,-4.85,-2.15,-2.97,-2.19,
5.086,9.75,-3.88,-4.56,-2.15,-2.97,-2.19,
5.086,9.75,-3.88,-4.56,-2.34,-2.89,-2.23,
5.086,9.75,-3.88,-4.56,-2.54,-2.79,-2.26,
5.087,9.98,-4.20,-4.26,-2.54,-2.79,-2.26,
5.087,9.98,-4.65,-3.73,-2.54,-2.79,-2.26,
5.088,9.98,-4.65,-3.73,-2.76,-2.66,-2.29,
5.088,9.79,-5.16,-3.08,-2.76,-2.66,-2.29,
5.089,9.79,-5.16,-3.08,-2.97,-2.50,-2.33,
5.089,9.50,-5.61,-2.29,-2.97,-2.50,-2.33,
5.089,9.50,-5.61,-2.29,-3.18,-2.33,-2.36,
5.09,9.23,-5.93,-1.39,-3.18,-2.33,-2.36,
5.09,9.23,-5.93,-1.39,-3.36,-2.15,-2.38,
5.09,9.09,-6.16,-0.40,-3.36,-2.15,-2.38,
5.091,9.09,-6.16,-0.40,-3.50,-2.00,-2.38,
5.091,9.17,-6.30,0.64,-3.50,-2.00,-2.38,
5.092,9.17,-6.30,0.64,-3.61,-1.87,-2.36,
5.097,9.41,-6.40,1.67,-3.61,-1.87,-2.36,
5.098,9.41,-6.40,1.67,-3.66,-1.78,-2.35,
5.101,9.81,-6.44,2.65,-3.66,-1.78,-2.35,
5.102,9.81,-6.44,2.65,-3.65,-1.72,-2.36,
5.106,10.19,-6.45,3.62,-3.65,-1.72,-2.36,
5.107,10.19,-6.45,3.62,-3.60,-1.68,-2.40,
5.117,10.50,-6.44,4.47,-3.60,-1.68,-2.40,
5.118,10.50,-6.44,4.47,-3.50,-1.65,-2.46,
5.118,10.72,-6.47,5.12,-3.50,-1.65,-2.46,
5.119,10.72,-6.47,5.12,-3.35,-1.62,-2.54,
5.123,10.81,-6.47,5.58,-3.35,-1.62,-2.54,
5.123,10.81,-6.47,5.58,-3.17,-1.60,-2.63,
5.126,10.81,-6.47,5.58,-2.97,-1.60,-2.73,
5.126,10.76,-6.50,6.02,-2.97,-1.60,-2.73,
5.139,10.76,-6.50,6.02,-2.76,-1.60,-2.82,
5.14,10.75,-6.53,6.33,-2.76,-1.60,-2.82,
5.141,10.75,-6.53,6.33,-2.53,-1.60,-2.92,
5.142,10.68,-6.62,6.54,-2.53,-1.60,-2.92,
5.142,10.68,-6.62,6.54,-2.30,-1.61,-3.01,
5.143,10.58,-6.65,6.63,-2.30,-1.61,-3.01,
5.147,10.37,-6.67,6.67,-2.30,-1.61,-3.01,
5.149,10.37,-6.67,6.67,-2.06,-1.61,-3.10,
5.15,10.14,-6.73,6.67,-2.06,-1.61,-3.10,
5.151,10.14,-6.73,6.67,-1.84,-1.62,-3.19,
5.155,9.95,-6.75,6.58,-1.84,-1.62,-3.19,
5.156,9.95,-6.75,6.58,-1.62,-1.63,-3.27,
5.168,9.91,-6.78,6.43,-1.62,-1.63,-3.27,
5.169,9.91,-6.78,6.43,-1.41,-1.65,-3.34,
5.169,9.91,-6.78,6.43,-1.21,-1.67,-3.40,
5.17,9.93,-6.72,6.24,-1.21,-1.67,-3.40,
5.171,9.93,-6.72,6.24,-1.02,-1.69,-3.46,
5.172,9.86,-6.69,5.95,-1.02,-1.69,-3.46,
5.174,9.86,-6.69,5.95,-0.84,-1.70,-3.52,
5.175,9.75,-6.66,5.57,-0.84,-1.70,-3.52,
5.187,9.48,-6.62,5.19,-0.84,-1.70,-3.52,
5.189,9.48,-6.62,5.19,-0.69,-1.70,-3.58,
5.189,9.48,-6.62,5.19,-0.57,-1.69,-3.63,
5.19,9.27,-6.66,4.75,-0.57,-1.69,-3.63,
5.19,9.27,-6.66,4.75,-0.48,-1.67,-3.66,
5.19,9.09,-6.68,4.29,-0.48,-1.67,-3.66,
5.194,9.09,-6.68,4.29,-0.41,-1.64,-3.68,
5.196,8.97,-6.68,3.88,-0.41,-1.64,-3.68,
5.199,8.97,-6.68,3.88,-0.37,-1.59,-3.69,
5.2,8.85,-6.55,3.47,-0.37,-1.59,-3.69,
5.204,8.85,-6.55,3.47,-0.34,-1.54,-3.70,
5.204,8.70,-6.35,3.06,-0.34,-1.54,-3.70,
5.209,8.53,-6.25,2.60,-0.34,-1.54,-3.70,
5.209,8.53,-6.25,2.60,-0.34,-1.48,-3.70,
5.214,8.53,-6.25,2.60,-0.36,-1.42,-3.70,
5.215,8.53,-6.12,2.13,-0.36,-1.42,-3.70,
5.218,8.53,-6.12,2.13,-0.40,-1.36,-3.68,
5.219,8.56,-5.97,1.73,-0.40,-1.36,-3.68,
5.223,8.56,-5.97,1.73,-0.45,-1.29,-3.68,
5.224,8.63,-5.77,1.32,-0.45,-1.29,-3.68,
5.228,8.63,-5.77,1.32,-0.52,-1.23,-3.69,
5.229,8.72,-5.73,0.91,-0.52,-1.23,-3.69,
5.233,8.72,-5.73,0.91,-0.61,-1.18,-3.70,
5.234,8.75,-5.68,0.51,-0.61,-1.18,-3.70,
5.238,8.75,-5.68,0.51,-0.70,-1.14,-3.71,
5.238,8.66,-5.73,0.12,-0.70,-1.14,-3.71,
5.283,8.59,-5.75,-0.15,-0.70,-1.14,-3.71,
5.284,8.59,-5.75,-0.15,-0.82,-1.12,-3.72,
5.284,8.59,-5.77,-0.41,-0.82,-1.12,-3.72,
5.285,8.59,-5.77,-0.41,-0.94,-1.10,-3.72,
5.285,8.58,-5.81,-0.53,-0.94,-1.10,-3.72,
5.286,8.58,-5.81,-0.53,-1.08,-1.10,-3.71,
5.286,8.58,-5.81,-0.53,-1.22,-1.09,-3.70,
5.287,8.75,-5.89,-0.62,-1.22,-1.09,-3.70,
5.287,9.07,-5.95,-0.58,-1.22,-1.09,-3.70,
5.288,9.07,-5.95,-0.58,-1.37,-1.09,-3.68,
5.288,9.34,-5.93,-0.38,-1.37,-1.09,-3.68,
5.289,9.34,-5.93,-0.38,-1.51,-1.08,-3.67,
5.289,9.34,-5.93,-0.38,-1.64,-1.09,-3.67,
5.29,9.58,-5.97,-0.25,-1.64,-1.09,-3.67,
5.29,9.77,-6.02,-0.15,-1.64,-1.09,-3.67,
5.291,9.77,-6.02,-0.15,-1.76,-1.09,-3.67,
5.291,10.03,-6.18,-0.14,-1.76,-1.09,-3.67,
5.292,10.03,-6.18,-0.14,-1.88,-1.11,-3.68,
5.293,10.29,-6.37,-0.26,-1.88,-1.11,-3.68,
5.325,10.29,-6.37,-0.26,-2.00,-1.12,-3.69,
5.325,10.55,-6.59,-0.28,-2.00,-1.12,-3.69,
5.326,10.55,-6.59,-0.28,-2.13,-1.12,-3.70,
5.326,10.70,-6.79,-0.25,-2.13,-1.12,-3.70,
5.327,10.70,-6.79,-0.25,-2.26,-1.12,-3.72,
5.327,10.84,-6.89,-0.16,-2.26,-1.12,-3.72,
5.328,10.84,-6.89,-0.16,-2.39,-1.11,-3.74,
5.328,10.91,-6.97,0.12,-2.39,-1.11,-3.74,
5.329,10.91,-6.97,0.12,-2.52,-1.09,-3.76,
5.329,10.91,-6.97,0.12,-2.64,-1.06,-3.79,
5.33,10.92,-7.14,0.37,-2.64,-1.06,-3.79,
5.33,10.96,-7.33,0.71,-2.64,-1.06,-3.79,
5.331,10.96,-7.33,0.71,-2.74,-1.03,-3.82,
5.331,10.96,-7.33,0.71,-2.83,-0.99,-3.86,
5.332,10.99,-7.48,1.11,-2.83,-0.99,-3.86,
5.332,10.99,-7.48,1.11,-2.90,-0.93,-3.88,
5.333,10.87,-7.55,1.50,-2.90,-0.93,-3.88,
5.333,10.87,-7.55,1.50,-2.94,-0.87,-3.92,
5.334,10.81,-7.54,1.94,-2.94,-0.87,-3.92,
5.343,10.81,-7.54,1.94,-2.97,-0.79,-3.96,
5.343,10.65,-7.63,2.50,-2.97,-0.79,-3.96,
5.344,10.65,-7.63,2.50,-2.96,-0.71,-4.00,
5.345,10.46,-7.67,3.07,-2.96,-0.71,-4.00,
5.351,10.46,-7.67,3.07,-2.91,-0.63,-4.05,
5.352,10.21,-7.67,3.68,-2.91,-0.63,-4.05,
5.366,9.99,-7.68,4.18,-2.91,-0.63,-4.05,
5.367,9.99,-7.68,4.18,-2.82,-0.56,-4.09,
5.367,9.86,-7.62,4.58,-2.82,-0.56,-4.09,
5.368,9.86,-7.62,4.58,-2.70,-0.49,-4.13,
5.368,9.86,-7.62,4.58,-2.53,-0.45,-4.17,
5.369,9.74,-7.54,4.76,-2.53,-0.45,-4.17,
5.369,9.72,-7.45,4.69,-2.53,-0.45,-4.17,
5.37,9.72,-7.45,4.69,-2.35,-0.42,-4.22,
5.37,9.72,-7.45,4.69,-2.15,-0.40,-4.26,
5.371,9.66,-7.42,4.51,-2.15,-0.40,-4.26,
5.374,9.66,-7.42,4.51,-1.95,-0.40,-4.30,
5.375,9.66,-7.40,4.24,-1.95,-0.40,-4.30,
5.386,9.67,-7.44,3.94,-1.95,-0.40,-4.30,
5.386,9.67,-7.44,3.94,-1.75,-0.42,-4.35,
5.387,9.58,-7.39,3.63,-1.75,-0.42,-4.35,
5.387,9.58,-7.39,3.63,-1.56,-0.45,-4.41,
5.389,9.42,-7.26,3.26,-1.56,-0.45,-4.41,
5.391,9.42,-7.26,3.26,-1.36,-0.50,-4.46,
5.413,9.42,-7.26,3.26,-1.18,-0.56,-4.51,
5.414,9.17,-7.19,2.92,-1.18,-0.56,-4.51,
5.414,8.92,-7.14,2.50,-1.18,-0.56,-4.51,
5.415,8.92,-7.14,2.50,-1.02,-0.62,-4.56,
5.415,8.70,-7.17,2.14,-1.02,-0.62,-4.56,
5.415,8.70,-7.17,2.14,-0.87,-0.69,-4.59,
5.416,8.51,-7.12,1.76,-0.87,-0.69,-4.59,
5.416,8.51,-7.12,1.76,-0.76,-0.75,-4.62,
5.416,8.31,-7.18,1.36,-0.76,-0.75,-4.62,
5.417,8.31,-7.18,1.36,-0.66,-0.78,-4.65,
5.419,8.31,-7.18,1.36,-0.58,-0.79,-4.66,
5.419,8.31,-7.11,0.90,-0.58,-0.79,-4.66,
5.424,8.50,-6.84,0.28,-0.58,-0.79,-4.66,
5.424,8.50,-6.84,0.28,-0.52,-0.79,-4.67,
5.428,8.50,-6.84,0.28,-0.49,-0.78,-4.69,
5.429,8.63,-6.49,-0.26,-0.49,-0.78,-4.69,
5.433,8.63,-6.49,-0.26,-0.46,-0.79,-4.71,
5.434,8.83,-6.15,-0.92,-0.46,-0.79,-4.71,
5.438,8.83,-6.15,-0.92,-0.44,-0.81,-4.76,
5.439,9.44,-5.83,-1.65,-0.44,-0.81,-4.76,
5.443,9.44,-5.83,-1.65,-0.45,-0.85,-4.84,
5.443,10.68,-5.47,-2.87,-0.45,-0.85,-4.84,
5.452,10.68,-5.47,-2.87,-0.50,-0.95,-4.96,
5.453,12.26,-5.07,-4.42,-0.50,-0.95,-4.96,
5.453,12.26,-5.07,-4.42,-0.60,-1.14,-5.17,
5.454,13.54,-4.68,-5.91,-0.60,-1.14,-5.17,
5.457,13.54,-4.68,-5.91,-0.74,-1.41,-5.43,
5.458,13.57,-5.09,-7.06,-0.74,-1.41,-5.43,
5.47,13.61,-4.97,-7.15,-0.74,-1.41,-5.43,
5.471,13.61,-4.97,-7.15,-0.90,-1.75,-5.70,
5.471,13.93,-4.97,-6.94,-0.90,-1.75,-5.70,
5.472,13.93,-4.97,-6.94,-1.04,-2.14,-5.96,
5.473,14.55,-4.77,-7.10,-1.04,-2.14,-5.96,
5.473,14.55,-4.77,-7.10,-1.17,-2.54,-6.24,
5.477,15.13,-4.69,-7.41,-1.17,-2.54,-6.24,
5.478,15.13,-4.69,-7.41,-1.30,-2.97,-6.54,
5.485,15.50,-4.94,-7.39,-1.30,-2.97,-6.54,
5.486,15.50,-4.94,-7.39,-1.45,-3.42,-6.86,
5.487,15.50,-4.94,-7.39,-1.61,-3.80,-7.15,
5.488,16.15,-6.02,-7.34,-1.61,-3.80,-7.15,
5.491,16.51,-7.37,-7.17,-1.61,-3.80,-7.15,
5.492,16.51,-7.37,-7.17,-1.79,-4.10,-7.45,
5.503,16.51,-7.37,-7.17,-2.00,-4.31,-7.78,
5.504,16.29,-8.47,-6.61,-2.00,-4.31,-7.78,
5.505,15.31,-9.32,-5.69,-2.00,-4.31,-7.78,
5.506,15.31,-9.32,-5.69,-2.23,-4.37,-8.13,
5.506,15.31,-9.32,-5.69,-2.46,-4.28,-8.43,
5.506,13.58,-9.92,-4.27,-2.46,-4.28,-8.43,
5.512,13.58,-9.92,-4.27,-2.67,-4.14,-8.64,
5.513,11.21,-10.41,-2.35,-2.67,-4.14,-8.64,
5.516,8.64,-10.73,-0.14,-2.67,-4.14,-8.64,
5.517,8.64,-10.73,-0.14,-2.81,-3.99,-8.73,
5.521,6.51,-10.92,2.18,-2.81,-3.99,-8.73,
5.522,6.51,-10.92,2.18,-2.87,-3.86,-8.68,
5.526,4.85,-11.10,4.35,-2.87,-3.86,-8.68,
5.526,4.85,-11.10,4.35,-2.82,-3.72,-8.52,
5.534,3.64,-11.04,6.26,-2.82,-3.72,-8.52,
5.567,3.64,-11.04,6.26,-2.65,-3.57,-8.30,
5.568,3.64,-11.04,6.26,-2.38,-3.40,-8.04,
5.568,2.65,-10.64,7.64,-2.38,-3.40,-8.04,
5.568,2.65,-10.64,7.64,-2.04,-3.20,-7.76,
5.569,1.82,-10.06,8.35,-2.04,-3.20,-7.76,
5.569,1.82,-10.06,8.35,-1.65,-2.98,-7.47,
5.57,1.30,-9.61,8.32,-1.65,-2.98,-7.47,
5.57,1.30,-9.61,8.32,-1.26,-2.76,-7.16,
5.57,1.01,-9.26,7.46,-1.26,-2.76,-7.16,
5.571,0.89,-9.05,6.15,-1.26,-2.76,-7.16,
5.571,0.89,-9.05,6.15,-0.92,-2.58,-6.85,
5.571,0.95,-8.74,4.75,-0.92,-2.58,-6.85,
5.572,0.95,-8.74,4.75,-0.64,-2.42,-6.53,
5.572,1.04,-8.31,3.36,-0.64,-2.42,-6.53,
5.572,1.04,-8.31,3.36,-0.45,-2.27,-6.22,
5.573,1.26,-7.91,2.18,-0.45,-2.27,-6.22,
5.573,1.26,-7.91,2.18,-0.33,-2.13,-5.91,
5.577,1.67,-7.56,1.17,-0.33,-2.13,-5.91,
5.577,1.67,-7.56,1.17,-0.27,-1.98,-5.61,
5.579,2.30,-7.29,0.18,-0.27,-1.98,-5.61,
5.58,2.30,-7.29,0.18,-0.25,-1.84,-5.34,
5.585,2.30,-7.29,0.18,-0.26,-1.71,-5.08,
5.585,3.00,-6.99,-0.66,-0.26,-1.71,-5.08,
5.589,3.00,-6.99,-0.66,-0.31,-1.61,-4.86,
5.589,3.70,-6.71,-1.31,-0.31,-1.61,-4.86,
5.594,3.70,-6.71,-1.31,-0.36,-1.55,-4.66,
5.596,4.52,-6.56,-1.82,-0.36,-1.55,-4.66,
5.599,5.14,-6.55,-2.16,-0.36,-1.55,-4.66,
5.6,5.14,-6.55,-2.16,-0.43,-1.52,-4.51,
5.604,5.37,-6.60,-2.44,-0.43,-1.52,-4.51,
5.605,5.37,-6.60,-2.44,-0.50,-1.50,-4.39,
5.609,5.17,-6.63,-2.56,-0.50,-1.50,-4.39,
5.609,5.17,-6.63,-2.56,-0.59,-1.48,-4.28,
5.617,5.17,-6.63,-2.56,-0.68,-1.46,-4.18,
5.618,4.82,-6.58,-2.50,-0.68,-1.46,-4.18,
5.619,4.82,-6.58,-2.50,-0.78,-1.45,-4.06,
5.619,4.55,-6.46,-2.22,-0.78,-1.45,-4.06,
5.624,4.55,-6.46,-2.22,-0.87,-1.45,-3.94,
5.625,4.35,-6.22,-1.89,-0.87,-1.45,-3.94,
5.641,4.35,-6.22,-1.89,-0.94,-1.46,-3.82,
5.642,4.10,-5.89,-1.40,-0.94,-1.46,-3.82,
5.642,4.10,-5.89,-1.40,-1.00,-1.47,-3.69,
5.643,3.71,-5.60,-0.80,-1.00,-1.47,-3.69,
5.643,3.18,-5.25,-0.18,-1.00,-1.47,-3.69,
5.643,3.18,-5.25,-0.18,-1.03,-1.48,-3.57,
5.644,3.18,-5.25,-0.18,-1.02,-1.50,-3.43,
5.644,2.69,-4.81,0.40,-1.02,-1.50,-3.43,
5.649,2.69,-4.81,0.40,-0.98,-1.52,-3.26,
5.65,2.35,-4.29,0.82,-0.98,-1.52,-3.26,
5.653,2.35,-4.29,0.82,-0.92,-1.56,-3.07,
5.654,2.30,-3.83,1.02,-0.92,-1.56,-3.07,
5.657,2.57,-3.60,0.94,-0.92,-1.56,-3.07,
5.658,2.57,-3.60,0.94,-0.83,-1.61,-2.88,
5.664,2.95,-3.39,0.74,-0.83,-1.61,-2.88,
5.665,2.95,-3.39,0.74,-0.73,-1.67,-2.70,
5.668,2.95,-3.39,0.74,-0.64,-1.73,-2.53,
5.668,3.37,-3.23,0.53,-0.64,-1.73,-2.53,
5.672,3.37,-3.23,0.53,-0.56,-1.76,-2.39,
5.673,3.74,-3.09,0.29,-0.56,-1.76,-2.39,
5.677,3.95,-2.90,0.11,-0.56,-1.76,-2.39,
5.677,3.95,-2.90,0.11,-0.51,-1.78,-2.27,
5.682,3.95,-2.90,0.11,-0.48,-1.77,-2.16,
5.683,4.03,-2.68,-0.09,-0.48,-1.77,-2.16,
5.687,4.03,-2.68,-0.09,-0.47,-1.73,-2.05,
5.688,4.14,-2.51,-0.20,-0.47,-1.73,-2.05,
5.692,4.14,-2.51,-0.20,-0.47,-1.64,-1.94,
5.692,4.32,-2.44,-0.36,-0.47,-1.64,-1.94,
5.703,4.32,-2.44,-0.36,-0.48,-1.52,-1.84,
5.704,4.43,-2.43,-0.37,-0.48,-1.52,-1.84,
5.705,4.43,-2.43,-0.37,-0.49,-1.40,-1.76,
5.706,4.51,-2.41,-0.31,-0.49,-1.40,-1.76,
5.708,4.61,-2.32,-0.12,-0.49,-1.40,-1.76,
5.708,4.61,-2.32,-0.12,-0.51,-1.26,-1.69,
5.732,4.61,-2.32,-0.12,-0.51,-1.12,-1.61,
5.733,4.69,-2.19,0.11,-0.51,-1.12,-1.61,
5.734,4.69,-2.19,0.11,-0.51,-0.98,-1.55,
5.734,4.88,-2.02,0.43,-0.51,-0.98,-1.55,
5.735,4.90,-1.86,0.76,-0.51,-0.98,-1.55,
5.735,4.90,-1.86,0.76,-0.48,-0.85,-1.50,
5.736,4.90,-1.86,0.76,-0.43,-0.71,-1.46,
5.736,4.88,-1.76,1.01,-0.43,-0.71,-1.46,
5.737,4.90,-1.75,1.29,-0.43,-0.71,-1.46,
5.737,4.90,-1.75,1.29,-0.36,-0.58,-1.43,
5.738,4.90,-1.75,1.29,-0.28,-0.46,-1.40,
5.738,4.91,-1.78,1.39,-0.28,-0.46,-1.40,
5.787,4.91,-1.78,1.39,-0.19,-0.35,-1.37,
5.788,4.74,-1.77,1.59,-0.19,-0.35,-1.37,
5.789,4.74,-1.77,1.59,-0.08,-0.24,-1.35,
5.789,4.53,-1.64,1.63,-0.08,-0.24,-1.35,
5.79,4.41,-1.51,1.64,-0.08,-0.24,-1.35,
5.79,4.41,-1.51,1.64,0.04,-0.15,-1.32,
5.791,4.52,-1.32,1.54,0.04,-0.15,-1.32,
5.791,4.52,-1.32,1.54,0.17,-0.08,-1.28,
5.791,4.95,-1.22,1.36,0.17,-0.08,-1.28,
5.792,4.95,-1.22,1.36,0.31,-0.03,-1.25,
5.792,4.95,-1.22,1.36,0.46,-0.00,-1.24,
5.793,5.81,-1.20,1.06,0.46,-0.00,-1.24,
5.793,6.64,-1.22,0.67,0.46,-0.00,-1.24,
5.794,6.64,-1.22,0.67,0.61,0.01,-1.27,
5.794,7.06,-1.21,0.14,0.61,0.01,-1.27,
5.826,7.06,-1.21,0.14,0.76,-0.01,-1.34,
5.826,7.27,-1.19,-0.38,0.76,-0.01,-1.34,
5.826,7.27,-1.19,-0.38,0.89,-0.06,-1.45,
5.827,7.17,-1.16,-0.89,0.89,-0.06,-1.45,
5.827,7.17,-1.16,-0.89,1.01,-0.13,-1.58,
5.828,7.17,-1.16,-0.89,1.10,-0.21,-1.71,
5.828,6.85,-1.17,-1.43,1.10,-0.21,-1.71,
5.828,6.35,-1.20,-2.00,1.10,-0.21,-1.71,
5.829,6.35,-1.20,-2.00,1.16,-0.30,-1.83,
5.829,5.77,-1.31,-2.55,1.16,-0.30,-1.83,
5.829,5.77,-1.31,-2.55,1.19,-0.39,-1.91,
5.83,5.77,-1.31,-2.55,1.20,-0.47,-1.97,
5.83,5.14,-1.42,-3.05,1.20,-0.47,-1.97,
5.83,4.43,-1.54,-3.48,1.20,-0.47,-1.97,
5.831,4.43,-1.54,-3.48,1.17,-0.55,-2.01,
5.831,4.43,-1.54,-3.48,1.12,-0.64,-2.01,
5.832,3.73,-1.64,-3.83,1.12,-0.64,-2.01,
5.832,3.21,-1.75,-4.19,1.12,-0.64,-2.01,
5.832,3.21,-1.75,-4.19,1.03,-0.71,-1.98,
5.833,3.21,-1.75,-4.19,0.91,-0.77,-1.92,
5.833,2.92,-1.86,-4.54,0.91,-0.77,-1.92,
5.833,2.70,-2.01,-4.88,0.91,-0.77,-1.92,
5.834,2.70,-2.01,-4.88,0.77,-0.82,-1.85,
5.834,2.38,-2.09,-5.21,0.77,-0.82,-1.85,
5.835,2.38,-2.09,-5.21,0.60,-0.85,-1.78,
5.841,2.38,-2.09,-5.21,0.40,-0.87,-1.70,
5.841,1.94,-2.06,-5.38,0.40,-0.87,-1.70,
5.843,1.94,-2.06,-5.38,0.18,-0.89,-1.61,
5.845,1.53,-2.14,-5.43,0.18,-0.89,-1.61,
5.859,1.32,-2.27,-5.28,0.18,-0.89,-1.61,
5.86,1.32,-2.27,-5.28,-0.05,-0.89,-1.51,
5.86,1.22,-2.46,-4.92,-0.05,-0.89,-1.51,
5.861,1.22,-2.46,-4.92,-0.29,-0.89,-1.39,
5.862,1.23,-2.56,-4.41,-0.29,-0.89,-1.39,
5.862,1.23,-2.56,-4.41,-0.51,-0.88,-1.28,
5.888,1.23,-2.56,-4.41,-0.71,-0.88,-1.16,
5.889,1.30,-2.58,-3.80,-0.71,-0.88,-1.16,
5.889,1.27,-2.54,-3.19,-0.71,-0.88,-1.16,
5.889,1.18,-2.42,-2.62,-0.71,-0.88,-1.16,
5.89,1.18,-2.42,-2.62,-0.87,-0.87,-1.05,
5.89,1.18,-2.42,-2.62,-1.01,-0.88,-0.96,
5.89,1.18,-2.42,-2.62,-1.11,-0.90,-0.85,
5.891,1.06,-2.31,-2.09,-1.11,-0.90,-0.85,
5.891,1.06,-2.31,-2.09,-1.19,-0.93,-0.75,
5.892,1.13,-2.23,-1.66,-1.19,-0.93,-0.75,
5.892,1.36,-2.17,-1.26,-1.19,-0.93,-0.75,
5.892,1.36,-2.17,-1.26,-1.24,-0.96,-0.64,
5.893,1.55,-2.01,-0.96,-1.24,-0.96,-0.64,
5.893,1.55,-2.01,-0.96,-1.27,-1.00,-0.54,
5.897,1.76,-1.85,-0.75,-1.27,-1.00,-0.54,
5.897,1.76,-1.85,-0.75,-1.29,-1.03,-0.46,
5.902,2.10,-1.75,-0.67,-1.29,-1.03,-0.46,
5.902,2.10,-1.75,-0.67,-1.30,-1.05,-0.38,
5.907,2.10,-1.75,-0.67,-1.31,-1.08,-0.32,
5.907,2.76,-1.89,-0.72,-1.31,-1.08,-0.32,
5.911,2.76,-1.89,-0.72,-1.34,-1.09,-0.28,
5.912,3.59,-2.11,-0.78,-1.34,-1.09,-0.28,
5.918,3.59,-2.11,-0.78,-1.37,-1.08,-0.30,
5.919,4.24,-2.30,-0.80,-1.37,-1.08,-0.30,
5.921,4.24,-2.30,-0.80,-1.43,-1.05,-0.36,
5.921,4.56,-2.40,-0.72,-1.43,-1.05,-0.36,
5.926,4.56,-2.40,-0.72,-1.49,-1.01,-0.45,
5.927,4.45,-2.49,-0.41,-1.49,-1.01,-0.45,
5.936,4.05,-2.55,0.17,-1.49,-1.01,-0.45,
5.937,4.05,-2.55,0.17,-1.54,-0.97,-0.54,
5.937,4.05,-2.55,0.17,-1.58,-0.93,-0.63,
5.938,3.65,-2.69,0.96,-1.58,-0.93,-0.63,
5.941,3.36,-2.77,1.78,-1.58,-0.93,-0.63,
5.941,3.36,-2.77,1.78,-1.57,-0.91,-0.71,
5.946,3.06,-2.77,2.56,-1.57,-0.91,-0.71,
5.947,3.06,-2.77,2.56,-1.54,-0.89,-0.78,
5.95,2.58,-2.76,3.28,-1.54,-0.89,-0.78,
5.951,2.58,-2.76,3.28,-1.46,-0.88,-0.84,
5.955,2.06,-2.65,3.86,-1.46,-0.88,-0.84,
5.956,2.06,-2.65,3.86,-1.34,-0.89,-0.90,
5.96,1.42,-2.48,4.32,-1.34,-0.89,-0.90,
5.96,1.42,-2.48,4.32,-1.20,-0.89,-0.94,
5.965,0.76,-2.28,4.68,-1.20,-0.89,-0.94,
5.966,0.76,-2.28,4.68,-1.06,-0.89,-0.95,
5.97,0.76,-2.28,4.68,-0.91,-0.89,-0.95,
5.971,0.37,-2.17,4.89,-0.91,-0.89,-0.95,
5.975,0.37,-2.17,4.89,-0.75,-0.86,-0.94,
5.975,0.22,-2.13,4.98,-0.75,-0.86,-0.94,
5.98,0.23,-2.12,4.89,-0.75,-0.86,-0.94,
5.982,0.23,-2.12,4.89,-0.60,-0.80,-0.92,
5.985,0.24,-2.07,4.74,-0.60,-0.80,-0.92,
5.986,0.24,-2.07,4.74,-0.46,-0.73,-0.90,
5.99,0.18,-2.03,4.55,-0.46,-0.73,-0.90,
5.99,0.18,-2.03,4.55,-0.33,-0.65,-0.90,
5.995,0.06,-1.97,4.32,-0.33,-0.65,-0.90,
5.996,0.06,-1.97,4.32,-0.22,-0.57,-0.91,
6.0,0.06,-1.97,4.32,-0.12,-0.49,-0.92,
6.001,-0.17,-1.77,4.18,-0.12,-0.49,-0.92,
6.004,-0.52,-1.59,4.00,-0.12,-0.49,-0.92,
6.005,-0.52,-1.59,4.00,-0.02,-0.42,-0.92,
6.009,-0.52,-1.59,4.00,0.07,-0.35,-0.91,
6.01,-0.69,-1.52,3.67,0.07,-0.35,-0.91,
6.022,-0.69,-1.52,3.67,0.16,-0.29,-0.88,
6.025,-0.83,-1.49,3.27,0.16,-0.29,-0.88,
6.026,-0.83,-1.49,3.27,0.24,-0.26,-0.86,
6.069,-0.98,-1.41,2.87,0.24,-0.26,-0.86,
6.069,-0.98,-1.41,2.87,0.29,-0.25,-0.83,
6.069,-1.21,-1.21,2.45,0.29,-0.25,-0.83,
6.07,-1.21,-1.21,2.45,0.34,-0.25,-0.79,
6.07,-1.45,-0.99,2.08,0.34,-0.25,-0.79,
6.071,-1.45,-0.99,2.08,0.36,-0.26,-0.74,
6.071,-1.66,-0.81,1.72,0.36,-0.26,-0.74,
6.071,-1.90,-0.46,1.43,0.36,-0.26,-0.74,
6.072,-1.90,-0.46,1.43,0.37,-0.27,-0.68,
6.072,-1.90,-0.46,1.43,0.36,-0.28,-0.61,
6.073,-2.09,-0.15,1.17,0.36,-0.28,-0.61,
6.073,-2.05,0.11,0.86,0.36,-0.28,-0.61,
6.073,-2.05,0.11,0.86,0.34,-0.28,-0.54,
6.074,-2.05,0.11,0.86,0.31,-0.28,-0.47,
6.074,-1.96,0.34,0.58,0.31,-0.28,-0.47,
6.075,-1.96,0.34,0.58,0.26,-0.29,-0.42,
6.075,-1.85,0.53,0.39,0.26,-0.29,-0.42,
6.075,-1.85,0.53,0.39,0.21,-0.29,-0.38,
6.076,-1.81,0.75,0.28,0.21,-0.29,-0.38,
6.076,-1.81,0.75,0.28,0.14,-0.29,-0.34,
6.077,-1.76,0.86,0.26,0.14,-0.29,-0.34,
6.077,-1.72,0.98,0.28,0.14,-0.29,-0.34,
6.077,-1.72,0.98,0.28,0.08,-0.28,-0.31,
6.084,-1.70,1.09,0.34,0.08,-0.28,-0.31,
6.085,-1.70,1.09,0.34,0.01,-0.26,-0.27,
6.085,-1.70,1.09,0.34,-0.04,-0.24,-0.24,
6.085,-1.64,1.21,0.44,-0.04,-0.24,-0.24,
6.087,-1.64,1.21,0.44,-0.10,-0.22,-0.21,
6.088,-1.55,1.25,0.60,-0.10,-0.22,-0.21,
6.092,-1.55,1.25,0.60,-0.14,-0.21,-0.18,
6.093,-1.39,1.28,0.75,-0.14,-0.21,-0.18,
6.098,-1.26,1.36,0.91,-0.14,-0.21,-0.18,
6.099,-1.26,1.36,0.91,-0.17,-0.20,-0.15,
6.102,-1.13,1.43,1.04,-0.17,-0.20,-0.15,
6.102,-1.13,1.43,1.04,-0.19,-0.18,-0.13,
6.106,-1.13,1.43,1.04,-0.19,-0.17,-0.12,
6.107,-0.81,1.40,1.07,-0.19,-0.17,-0.12,
6.111,-0.52,1.41,1.09,-0.19,-0.17,-0.12,
6.112,-0.52,1.41,1.09,-0.19,-0.15,-0.12,
6.116,-0.15,1.39,1.16,-0.19,-0.15,-0.12,
6.117,-0.15,1.39,1.16,-0.17,-0.15,-0.13,
6.121,0.23,1.36,1.33,-0.17,-0.15,-0.13,
6.121,0.23,1.36,1.33,-0.15,-0.14,-0.16,
6.126,0.23,1.36,1.33,-0.11,-0.12,-0.21,
6.126,0.63,1.29,1.45,-0.11,-0.12,-0.21,
6.137,0.63,1.29,1.45,-0.06,-0.09,-0.27,
6.138,0.78,1.21,1.51,-0.06,-0.09,-0.27,
6.139,0.78,1.21,1.51,0.02,-0.04,-0.34,
6.14,0.87,1.06,1.44,0.02,-0.04,-0.34,
6.142,0.88,0.88,1.28,0.02,-0.04,-0.34,
6.142,0.88,0.88,1.28,0.10,-0.00,-0.41,
6.145,0.88,0.88,1.28,0.18,0.02,-0.47,
6.146,0.80,0.84,1.23,0.18,0.02,-0.47,
6.166,0.75,0.76,1.12,0.18,0.02,-0.47,
6.166,0.75,0.76,1.12,0.27,0.04,-0.53,
6.167,0.68,0.69,0.92,0.27,0.04,-0.53,
6.167,0.68,0.69,0.92,0.37,0.06,-0.58,
6.167,0.68,0.69,0.92,0.46,0.05,-0.62,
6.168,0.48,0.58,0.57,0.46,0.05,-0.62,
6.168,0.48,0.58,0.57,0.54,0.03,-0.65,
6.168,0.18,0.57,0.16,0.54,0.03,-0.65,
6.171,0.03,0.47,-0.39,0.54,0.03,-0.65,
6.171,0.03,0.47,-0.39,0.60,0.01,-0.66,
6.175,0.03,0.47,-0.39,0.65,-0.01,-0.64,
6.175,0.06,0.27,-1.03,0.65,-0.01,-0.64,
6.18,0.06,0.27,-1.03,0.66,-0.04,-0.62,
6.181,0.10,0.09,-1.69,0.66,-0.04,-0.62,
6.184,0.08,-0.01,-2.28,0.66,-0.04,-0.62,
6.185,0.08,-0.01,-2.28,0.64,-0.07,-0.59,
6.189,-0.04,-0.04,-2.85,0.64,-0.07,-0.59,
6.19,-0.04,-0.04,-2.85,0.58,-0.09,-0.56,
6.194,-0.14,-0.08,-3.38,0.58,-0.09,-0.56,
6.195,-0.14,-0.08,-3.38,0.49,-0.11,-0.52,
6.199,-0.27,-0.09,-3.71,0.49,-0.11,-0.52,
6.2,-0.27,-0.09,-3.71,0.37,-0.13,-0.47,
6.204,-0.35,-0.07,-3.90,0.37,-0.13,-0.47,
6.205,-0.35,-0.07,-3.90,0.23,-0.15,-0.41,
6.209,-0.34,-0.01,-3.92,0.23,-0.15,-0.41,
6.21,-0.34,-0.01,-3.92,0.07,-0.18,-0.33,
6.216,-0.34,-0.01,-3.92,-0.09,-0.21,-0.25,
6.217,-0.17,-0.05,-3.85,-0.09,-0.21,-0.25,
6.265,-0.17,-0.05,-3.85,-0.26,-0.24,-0.17,
6.266,0.03,-0.10,-3.66,-0.26,-0.24,-0.17,
6.267,0.03,-0.10,-3.66,-0.41,-0.26,-0.10,
6.267,0.28,-0.13,-3.40,-0.41,-0.26,-0.10,
6.268,0.57,-0.14,-3.07,-0.41,-0.26,-0.10,
6.268,0.57,-0.14,-3.07,-0.55,-0.29,-0.04,
6.269,0.81,-0.17,-2.72,-0.55,-0.29,-0.04,
6.269,0.81,-0.17,-2.72,-0.67,-0.30,0.01,
6.27,0.97,-0.22,-2.35,-0.67,-0.30,0.01,
6.27,0.97,-0.22,-2.35,-0.78,-0.31,0.04,
6.27,0.97,-0.22,-2.35,-0.88,-0.31,0.07,
6.271,1.20,-0.28,-1.98,-0.88,-0.31,0.07,
6.271,1.20,-0.28,-1.98,-0.96,-0.30,0.09,
6.272,1.39,-0.30,-1.63,-0.96,-0.30,0.09,
6.272,1.65,-0.34,-1.23,-0.96,-0.30,0.09,
6.273,1.65,-0.34,-1.23,-1.02,-0.29,0.10,
6.273,1.86,-0.38,-0.90,-1.02,-0.29,0.10,
6.274,1.86,-0.38,-0.90,-1.07,-0.26,0.10,
6.274,1.86,-0.38,-0.90,-1.10,-0.23,0.09,
6.304,2.00,-0.43,-0.60,-1.10,-0.23,0.09,
6.305,2.12,-0.51,-0.27,-1.10,-0.23,0.09,
6.305,2.12,-0.51,-0.27,-1.12,-0.20,0.06,
6.305,2.20,-0.59,0.09,-1.12,-0.20,0.06,
6.306,2.20,-0.59,0.09,-1.13,-0.18,0.03,
6.306,2.26,-0.66,0.40,-1.13,-0.18,0.03,
6.307,2.26,-0.66,0.40,-1.12,-0.16,-0.01,
6.307,2.36,-0.71,0.74,-1.12,-0.16,-0.01,
6.307,2.36,-0.71,0.74,-1.09,-0.15,-0.05,
6.308,2.32,-0.75,1.06,-1.09,-0.15,-0.05,
6.308,2.32,-0.75,1.06,-1.04,-0.13,-0.09,
6.309,2.32,-0.75,1.06,-0.99,-0.13,-0.14,
6.309,2.15,-0.71,1.28,-0.99,-0.13,-0.14,
6.31,2.01,-0.70,1.48,-0.99,-0.13,-0.14,
6.31,2.01,-0.70,1.48,-0.92,-0.14,-0.19,
6.311,2.01,-0.70,1.48,-0.85,-0.14,-0.23,
6.311,2.11,-0.88,1.53,-0.85,-0.14,-0.23,
6.312,2.11,-0.88,1.53,-0.78,-0.15,-0.27,
6.312,2.39,-1.12,1.42,-0.78,-0.15,-0.27,
6.312,2.63,-1.31,1.33,-0.78,-0.15,-0.27,
6.313,2.63,-1.31,1.33,-0.72,-0.17,-0.33,
6.322,2.63,-1.31,1.33,-0.66,-0.17,-0.41,
6.322,2.67,-1.55,1.28,-0.66,-0.17,-0.41,
6.323,2.48,-1.72,1.20,-0.66,-0.17,-0.41,
6.323,2.48,-1.72,1.20,-0.62,-0.18,-0.50,
6.326,2.48,-1.72,1.20,-0.58,-0.17,-0.59,
6.326,2.16,-1.99,1.21,-0.58,-0.17,-0.59,
6.338,2.16,-1.99,1.21,-0.56,-0.16,-0.67,
6.339,1.81,-2.32,1.35,-0.56,-0.16,-0.67,
6.339,1.81,-2.32,1.35,-0.53,-0.13,-0.73,
6.34,1.30,-2.58,1.57,-0.53,-0.13,-0.73,
6.341,1.30,-2.58,1.57,-0.50,-0.09,-0.78,
6.342,0.78,-2.78,1.85,-0.50,-0.09,-0.78,
6.437,0.29,-2.95,2.20,-0.50,-0.09,-0.78,
6.439,0.29,-2.95,2.20,-0.46,-0.06,-0.81,
6.441,-0.34,-3.07,2.61,-0.46,-0.06,-0.81,
6.443,-0.34,-3.07,2.61,-0.40,-0.04,-0.82,
6.445,-0.34,-3.07,2.61,-0.33,-0.05,-0.81,
6.446,-0.79,-3.19,2.96,-0.33,-0.05,-0.81,
6.447,-1.16,-3.35,3.18,-0.33,-0.05,-0.81,
6.449,-1.16,-3.35,3.18,-0.24,-0.04,-0.78,
6.45,-1.44,-3.60,3.14,-0.24,-0.04,-0.78,
6.452,-1.44,-3.60,3.14,-0.13,-0.03,-0.74,
6.453,-1.44,-3.60,3.14,-0.02,-0.01,-0.69,
6.455,-1.81,-3.79,3.05,-0.02,-0.01,-0.69,
6.456,-2.19,-3.97,2.85,-0.02,-0.01,-0.69,
6.457,-2.19,-3.97,2.85,0.08,0.01,-0.63,
6.459,-2.19,-3.97,2.85,0.17,0.04,-0.55,
6.459,-2.49,-4.17,2.64,0.17,0.04,-0.55,
6.46,-2.68,-4.50,2.41,0.17,0.04,-0.55,
6.461,-2.68,-4.50,2.41,0.24,0.08,-0.45,
6.462,-2.68,-4.50,2.41,0.29,0.14,-0.35,
6.463,-2.82,-4.86,2.10,0.29,0.14,-0.35,
6.463,-3.15,-5.21,1.87,0.29,0.14,-0.35,
6.463,-3.15,-5.21,1.87,0.31,0.21,-0.26,
6.464,-3.59,-5.59,1.88,0.31,0.21,-0.26,
6.464,-3.59,-5.59,1.88,0.32,0.30,-0.17,
6.465,-3.97,-6.08,2.04,0.32,0.30,-0.17,
6.465,-3.97,-6.08,2.04,0.31,0.38,-0.08,
6.466,-4.38,-6.51,2.38,0.31,0.38,-0.08,
6.466,-4.38,-6.51,2.38,0.30,0.45,0.02,
6.467,-4.91,-6.89,2.80,0.30,0.45,0.02,
6.467,-4.91,-6.89,2.80,0.32,0.53,0.14,
6.468,-4.91,-6.89,2.80,0.35,0.60,0.27,
6.468,-5.53,-7.12,3.24,0.35,0.60,0.27,
6.469,-6.21,-7.27,3.77,0.35,0.60,0.27,
6.469,-6.21,-7.27,3.77,0.41,0.67,0.42,
6.469,-6.77,-7.33,4.28,0.41,0.67,0.42,
6.47,-6.77,-7.33,4.28,0.51,0.72,0.62,
6.47,-6.77,-7.33,4.28,0.63,0.78,0.84,
6.471,-7.09,-7.34,4.66,0.63,0.78,0.84,
6.471,-7.09,-7.34,4.66,0.77,0.84,1.09,
6.472,-7.09,-7.34,4.66,0.92,0.89,1.36,
6.472,-7.27,-7.27,4.86,0.92,0.89,1.36,
6.472,-7.34,-7.13,4.68,0.92,0.89,1.36,
6.473,-7.21,-7.02,4.22,0.92,0.89,1.36,
6.473,-7.21,-7.02,4.22,1.07,0.95,1.65,
6.474,-6.76,-7.05,3.46,1.07,0.95,1.65,
6.474,-6.76,-7.05,3.46,1.19,1.01,1.94,
6.474,-5.90,-7.15,2.81,1.19,1.01,1.94,
6.475,-5.90,-7.15,2.81,1.28,1.08,2.23,
6.475,-5.90,-7.15,2.81,1.31,1.09,2.49,
6.476,-5.30,-6.76,2.39,1.31,1.09,2.49,
6.476,-4.54,-6.38,1.97,1.31,1.09,2.49,
6.476,-4.54,-6.38,1.97,1.32,1.09,2.71,
6.477,-3.29,-6.38,1.35,1.32,1.09,2.71,
6.477,-3.29,-6.38,1.35,1.33,1.15,2.91,
6.478,-1.99,-6.59,0.69,1.33,1.15,2.91,
6.478,-1.99,-6.59,0.69,1.32,1.23,3.07,
6.494,-1.99,-6.59,0.69,1.28,1.32,3.18,
6.494,-1.07,-6.69,0.15,1.28,1.32,3.18,
6.495,-1.07,-6.69,0.15,1.23,1.38,3.24,
6.495,-0.50,-6.63,-0.17,1.23,1.38,3.24,
6.496,-0.50,-6.63,-0.17,1.16,1.41,3.29,
6.496,-0.37,-6.23,-0.22,1.16,1.41,3.29,
6.497,-0.37,-6.23,-0.22,1.09,1.42,3.33,
6.497,-0.41,-5.78,-0.03,1.09,1.42,3.33,
6.506,-0.41,-5.78,-0.03,1.04,1.40,3.38,
6.507,-0.44,-5.39,0.27,1.04,1.40,3.38,
6.507,-0.44,-5.39,0.27,1.02,1.34,3.44,
6.542,-0.36,-5.13,0.54,1.02,1.34,3.44,
6.542,-0.36,-5.13,0.54,1.01,1.26,3.51,
6.542,-0.05,-4.97,0.77,1.01,1.26,3.51,
6.542,-0.05,-4.97,0.77,1.04,1.17,3.57,
6.543,0.42,-4.87,0.82,1.04,1.17,3.57,
6.543,0.42,-4.87,0.82,1.07,1.09,3.62,
6.543,0.74,-4.78,0.74,1.07,1.09,3.62,
6.543,0.74,-4.78,0.74,1.10,1.02,3.66,
6.544,0.98,-4.66,0.54,1.10,1.02,3.66,
6.544,0.98,-4.66,0.54,1.13,0.96,3.70,
6.544,1.17,-4.47,0.27,1.13,0.96,3.70,
6.545,1.17,-4.47,0.27,1.14,0.90,3.75,
6.545,1.42,-4.25,0.02,1.14,0.90,3.75,
6.545,1.42,-4.25,0.02,1.13,0.82,3.79,
6.545,1.87,-4.07,-0.16,1.13,0.82,3.79,
6.546,2.33,-3.87,-0.38,1.13,0.82,3.79,
6.546,2.33,-3.87,-0.38,1.10,0.76,3.82,
6.556,2.33,-3.87,-0.38,1.05,0.71,3.84,
6.556,2.79,-3.75,-0.58,1.05,0.71,3.84,
6.557,2.79,-3.75,-0.58,0.99,0.67,3.85,
6.557,3.27,-3.68,-0.79,0.99,0.67,3.85,
6.56,3.64,-3.59,-0.91,0.99,0.67,3.85,
6.56,3.64,-3.59,-0.91,0.92,0.64,3.85,
6.576,3.84,-3.41,-1.06,0.92,0.64,3.85,
6.577,3.84,-3.41,-1.06,0.82,0.61,3.86,
6.577,4.00,-3.21,-1.11,0.82,0.61,3.86,
6.577,4.00,-3.21,-1.11,0.71,0.60,3.85,
6.577,4.21,-2.99,-1.10,0.71,0.60,3.85,
6.578,4.21,-2.99,-1.10,0.57,0.59,3.86,
6.58,4.21,-2.99,-1.10,0.42,0.59,3.86,
6.58,4.54,-2.84,-1.02,0.42,0.59,3.86,
6.588,4.54,-2.84,-1.02,0.26,0.58,3.85,
6.589,5.03,-2.77,-0.87,0.26,0.58,3.85,
6.589,5.03,-2.77,-0.87,0.10,0.59,3.83,
6.589,5.55,-2.74,-0.55,0.10,0.59,3.83,
6.594,6.10,-2.68,-0.12,0.10,0.59,3.83,
6.595,6.10,-2.68,-0.12,-0.05,0.60,3.79,
6.607,6.10,-2.68,-0.12,-0.19,0.63,3.73,
6.608,6.50,-2.57,0.42,-0.19,0.63,3.73,
6.608,6.82,-2.35,0.98,-0.19,0.63,3.73,
6.609,6.82,-2.35,0.98,-0.31,0.65,3.66,
6.609,7.12,-2.11,1.49,-0.31,0.65,3.66,
6.609,7.12,-2.11,1.49,-0.41,0.68,3.57,
6.613,7.41,-1.98,1.96,-0.41,0.68,3.57,
6.614,7.41,-1.98,1.96,-0.49,0.72,3.46,
6.619,7.41,-1.98,1.96,-0.55,0.78,3.34,
6.619,7.47,-1.89,2.47,-0.55,0.78,3.34,
6.623,7.47,-1.89,2.47,-0.61,0.86,3.21,
6.624,7.25,-1.79,2.96,-0.61,0.86,3.21,
6.628,7.25,-1.79,2.96,-0.64,0.96,3.10,
6.628,6.88,-1.66,3.42,-0.64,0.96,3.10,
6.634,6.88,-1.66,3.42,-0.66,1.07,3.01,
6.635,6.31,-1.52,3.91,-0.66,1.07,3.01,
6.638,6.31,-1.52,3.91,-0.67,1.20,2.95,
6.639,5.80,-1.46,4.51,-0.67,1.20,2.95,
6.643,5.58,-1.48,5.15,-0.67,1.20,2.95,
6.645,5.58,-1.48,5.15,-0.65,1.33,2.91,
6.648,5.67,-1.51,5.75,-0.65,1.33,2.91,
6.651,5.67,-1.51,5.75,-0.60,1.46,2.88,
6.654,5.67,-1.51,5.75,-0.52,1.60,2.85,
6.654,6.00,-1.54,6.21,-0.52,1.60,2.85,
6.658,6.49,-1.54,6.61,-0.52,1.60,2.85,
6.659,6.49,-1.54,6.61,-0.40,1.70,2.81,
6.663,7.07,-1.54,7.03,-0.40,1.70,2.81,
6.663,7.07,-1.54,7.03,-0.25,1.77,2.73,
6.668,7.38,-1.61,7.36,-0.25,1.77,2.73,
6.669,7.38,-1.61,7.36,-0.08,1.83,2.59,
6.673,7.25,-1.76,7.66,-0.08,1.83,2.59,
6.674,7.25,-1.76,7.66,0.12,1.89,2.41,
6.677,6.89,-1.83,8.02,0.12,1.89,2.41,
6.678,6.89,-1.83,8.02,0.35,1.95,2.22,
6.693,6.44,-1.86,8.27,0.35,1.95,2.22,
6.694,6.44,-1.86,8.27,0.60,1.97,2.07,
6.694,6.03,-1.88,8.44,0.60,1.97,2.07,
6.695,6.03,-1.88,8.44,0.86,1.98,1.93,
6.695,5.54,-1.97,8.34,0.86,1.98,1.93,
6.696,5.54,-1.97,8.34,1.14,1.97,1.79,
6.699,5.54,-1.97,8.34,1.42,1.94,1.66,
6.7,4.85,-2.08,8.02,1.42,1.94,1.66,
6.72,4.85,-2.08,8.02,1.72,1.86,1.55,
6.721,4.15,-2.25,7.52,1.72,1.86,1.55,
6.721,4.15,-2.25,7.52,1.99,1.73,1.46,
6.722,3.46,-2.48,6.97,1.99,1.73,1.46,
6.722,3.46,-2.48,6.97,2.24,1.57,1.40,
6.722,2.93,-2.85,6.34,2.24,1.57,1.40,
6.723,2.93,-2.85,6.34,2.46,1.41,1.35,
6.723,2.40,-3.21,5.83,2.46,1.41,1.35,
6.724,2.40,-3.21,5.83,2.66,1.26,1.29,
6.724,1.63,-3.48,5.46,2.66,1.26,1.29,
6.768,1.63,-3.48,5.46,2.83,1.14,1.25,
6.768,0.86,-3.73,5.09,2.83,1.14,1.25,
6.769,0.19,-4.08,4.71,2.83,1.14,1.25,
6.769,0.19,-4.08,4.71,2.99,1.05,1.23,
6.769,-0.32,-4.41,4.31,2.99,1.05,1.23,
6.77,-0.32,-4.41,4.31,3.12,1.00,1.24,
6.77,-0.32,-4.41,4.31,3.23,0.97,1.29,
6.771,-0.70,-4.76,3.93,3.23,0.97,1.29,
6.771,-1.15,-5.12,3.56,3.23,0.97,1.29,
6.771,-1.15,-5.12,3.56,3.31,1.01,1.33,
6.772,-1.74,-5.35,3.17,3.31,1.01,1.33,
6.798,-1.74,-5.35,3.17,3.36,1.09,1.39,
6.799,-2.48,-5.48,2.82,3.36,1.09,1.39,
6.799,-2.48,-5.48,2.82,3.39,1.21,1.45,
6.799,-3.12,-5.59,2.52,3.39,1.21,1.45,
6.8,-3.12,-5.59,2.52,3.40,1.32,1.56,
6.8,-3.41,-5.79,2.32,3.40,1.32,1.56,
6.801,-3.41,-5.79,2.32,3.39,1.43,1.70,
6.801,-3.62,-6.06,2.04,3.39,1.43,1.70,
6.801,-3.62,-6.06,2.04,3.37,1.54,1.86,
6.802,-3.62,-6.06,2.04,3.35,1.62,2.03,
6.802,-3.75,-6.13,1.86,3.35,1.62,2.03,
6.802,-3.75,-6.13,1.86,3.33,1.68,2.22,
6.803,-3.57,-6.24,1.49,3.33,1.68,2.22,
6.803,-3.02,-6.34,0.92,3.33,1.68,2.22,
6.804,-3.02,-6.34,0.92,3.32,1.75,2.41,
6.804,-2.29,-6.51,0.22,3.32,1.75,2.41,
6.804,-2.29,-6.51,0.22,3.29,1.80,2.61,
6.805,-1.41,-6.50,-0.42,3.29,1.80,2.61,
6.805,-1.41,-6.50,-0.42,3.23,1.85,2.79,
6.805,-0.33,-6.34,-1.02,3.23,1.85,2.79,
6.806,-0.33,-6.34,-1.02,3.14,1.88,2.94,
6.806,-0.33,-6.34,-1.02,3.04,1.90,3.05,
6.807,0.85,-6.04,-1.52,3.04,1.90,3.05,
6.813,2.03,-5.53,-1.87,3.04,1.90,3.05,
6.813,2.03,-5.53,-1.87,2.90,1.92,3.11,
6.813,2.03,-5.53,-1.87,2.74,1.93,3.11,
6.814,3.22,-4.85,-2.17,2.74,1.93,3.11,
6.822,3.22,-4.85,-2.17,2.58,1.93,3.07,
6.823,4.57,-4.07,-2.53,2.58,1.93,3.07,
6.823,4.57,-4.07,-2.53,2.39,1.90,2.97,
6.824,6.14,-3.37,-3.04,2.39,1.90,2.97,
6.828,6.14,-3.37,-3.04,2.17,1.84,2.80,
6.828,7.90,-2.69,-3.84,2.17,1.84,2.80,
6.888,9.73,-2.01,-4.62,2.17,1.84,2.80,
6.889,9.73,-2.01,-4.62,1.93,1.75,2.58,
6.889,9.73,-2.01,-4.62,1.65,1.64,2.28,
6.89,11.47,-1.37,-5.36,1.65,1.64,2.28,
6.891,12.79,-0.83,-5.89,1.65,1.64,2.28,
6.891,12.79,-0.83,-5.89,1.35,1.53,1.91,
6.892,13.51,-0.35,-6.28,1.35,1.53,1.91,
6.893,13.51,-0.35,-6.28,1.04,1.42,1.48,
6.893,13.81,0.11,-6.36,1.04,1.42,1.48,
6.894,13.81,0.11,-6.36,0.72,1.30,1.01,
6.894,13.97,0.64,-6.14,0.72,1.30,1.01,
6.895,13.97,0.64,-6.14,0.41,1.15,0.52,
6.896,13.97,0.64,-6.14,0.11,0.97,0.04,
6.896,14.05,1.01,-5.61,0.11,0.97,0.04,
6.897,14.05,1.01,-5.61,-0.15,0.78,-0.46,
6.898,14.13,1.08,-4.91,-0.15,0.78,-0.46,
6.899,14.13,1.08,-4.91,-0.39,0.64,-0.96,
6.9,14.05,0.81,-4.22,-0.39,0.64,-0.96,
6.901,14.05,0.81,-4.22,-0.62,0.57,-1.45,
6.901,13.83,0.14,-3.52,-0.62,0.57,-1.45,
6.902,13.37,-0.84,-2.92,-0.62,0.57,-1.45,
6.902,13.37,-0.84,-2.92,-0.83,0.57,-1.93,
6.903,12.37,-2.10,-2.45,-0.83,0.57,-1.93,
6.903,12.37,-2.10,-2.45,-1.05,0.66,-2.38,
6.904,12.37,-2.10,-2.45,-1.26,0.84,-2.80,
6.904,10.65,-3.41,-2.00,-1.26,0.84,-2.80,
6.905,8.53,-4.67,-1.46,-1.26,0.84,-2.80,
6.906,8.53,-4.67,-1.46,-1.47,1.09,-3.13,
6.906,8.53,-4.67,-1.46,-1.69,1.39,-3.34,
6.907,6.33,-5.73,-0.73,-1.69,1.39,-3.34,
6.907,6.33,-5.73,-0.73,-1.90,1.69,-3.43,
6.908,4.10,-6.53,0.25,-1.90,1.69,-3.43,
6.917,1.65,-7.14,1.44,-1.90,1.69,-3.43,
6.918,1.65,-7.14,1.44,-2.09,1.99,-3.41,
6.918,1.65,-7.14,1.44,-2.21,2.26,-3.27,
6.919,-0.48,-7.54,2.45,-2.21,2.26,-3.27,
6.922,-0.48,-7.54,2.45,-2.27,2.49,-3.02,
6.923,-2.06,-7.88,3.01,-2.27,2.49,-3.02,
6.927,-2.98,-8.18,3.32,-2.27,2.49,-3.02,
6.928,-2.98,-8.18,3.32,-2.29,2.64,-2.66,
6.931,-3.42,-8.28,3.47,-2.29,2.64,-2.66,
6.932,-3.42,-8.28,3.47,-2.30,2.69,-2.24,
6.941,-3.23,-8.22,3.50,-2.30,2.69,-2.24,
6.942,-3.23,-8.22,3.50,-2.30,2.63,-1.79,
6.943,-2.24,-8.18,3.47,-2.30,2.63,-1.79,
6.943,-2.24,-8.18,3.47,-2.28,2.50,-1.36,
6.945,-2.24,-8.18,3.47,-2.25,2.30,-0.99,
6.946,-0.98,-8.40,3.50,-2.25,2.30,-0.99,
6.968,-0.98,-8.40,3.50,-2.20,2.05,-0.68,
6.969,0.10,-8.83,3.76,-2.20,2.05,-0.68,
6.97,0.73,-9.25,4.27,-2.20,2.05,-0.68,
6.97,0.73,-9.25,4.27,-2.12,1.75,-0.43,
6.971,0.88,-9.43,4.98,-2.12,1.75,-0.43,
6.971,0.88,-9.43,4.98,-2.01,1.43,-0.20,
6.972,0.66,-9.43,5.70,-2.01,1.43,-0.20,
6.972,0.66,-9.43,5.70,-1.85,1.13,0.03,
6.972,0.66,-9.43,5.70,-1.67,0.86,0.27,
6.973,0.36,-9.43,6.39,-1.67,0.86,0.27,
6.975,0.27,-9.53,7.09,-1.67,0.86,0.27,
6.975,0.27,-9.53,7.09,-1.47,0.64,0.55,
6.98,0.53,-9.50,7.53,-1.47,0.64,0.55,
6.98,0.53,-9.50,7.53,-1.25,0.49,0.86,
6.985,1.22,-9.31,7.82,-1.25,0.49,0.86,
6.986,1.22,-9.31,7.82,-1.04,0.42,1.20,
6.99,1.22,-9.31,7.82,-0.82,0.41,1.52,
6.99,2.21,-9.13,7.95,-0.82,0.41,1.52,
6.995,2.21,-9.13,7.95,-0.60,0.46,1.79,
7.03,3.47,-9.10,7.85,-0.60,0.46,1.79,
7.03,4.65,-9.13,7.63,-0.60,0.46,1.79,
7.031,4.65,-9.13,7.63,-0.38,0.55,2.00,
7.031,5.52,-8.98,7.51,-0.38,0.55,2.00,
7.031,5.52,-8.98,7.51,-0.17,0.66,2.16,
7.032,6.18,-8.69,7.43,-0.17,0.66,2.16,
7.032,6.18,-8.69,7.43,0.03,0.77,2.29,
7.032,6.18,-8.69,7.43,0.25,0.88,2.41,
7.033,7.06,-8.36,7.26,0.25,0.88,2.41,
7.033,7.06,-8.36,7.26,0.48,0.96,2.52,
7.033,8.22,-7.98,7.01,0.48,0.96,2.52,
7.033,8.22,-7.98,7.01,0.73,1.01,2.62,
7.034,9.61,-7.55,6.72,0.73,1.01,2.62,
7.034,9.61,-7.55,6.72,1.00,1.04,2.68,
7.034,11.16,-7.21,6.27,1.00,1.04,2.68,
7.035,11.16,-7.21,6.27,1.28,1.06,2.68,
7.035,12.52,-6.87,5.53,1.28,1.06,2.68,
7.039,12.52,-6.87,5.53,1.54,1.09,2.64,
7.039,13.42,-6.62,4.63,1.54,1.09,2.64,
7.047,13.42,-6.62,4.63,1.78,1.12,2.56,
7.048,13.80,-6.47,3.60,1.78,1.12,2.56,
7.049,13.80,-6.47,3.60,1.97,1.18,2.48,
7.049,13.74,-6.50,2.64,1.97,1.18,2.48,
7.071,13.74,-6.50,2.64,2.09,1.25,2.41,
7.072,13.45,-6.60,1.73,2.09,1.25,2.41,
7.072,13.45,-6.60,1.73,2.16,1.33,2.37,
7.073,13.05,-6.61,0.91,2.16,1.33,2.37,
7.073,12.51,-6.69,0.19,2.16,1.33,2.37,
7.074,12.51,-6.69,0.19,2.18,1.43,2.34,
7.074,11.93,-6.98,-0.23,2.18,1.43,2.34,
7.074,11.93,-6.98,-0.23,2.13,1.55,2.33,
7.075,11.93,-6.98,-0.23,2.06,1.67,2.35,
7.075,11.34,-7.36,-0.53,2.06,1.67,2.35,
7.078,11.34,-7.36,-0.53,1.95,1.81,2.42,
7.078,10.69,-7.80,-0.74,1.95,1.81,2.42,
7.082,10.00,-8.32,-0.96,1.95,1.81,2.42,
7.083,10.00,-8.32,-0.96,1.82,1.97,2.53,
7.087,9.29,-8.85,-1.20,1.82,1.97,2.53,
7.088,9.29,-8.85,-1.20,1.67,2.16,2.69,
7.092,8.57,-9.33,-1.40,1.67,2.16,2.69,
7.092,8.57,-9.33,-1.40,1.49,2.37,2.90,
7.097,8.57,-9.33,-1.40,1.30,2.60,3.15,
7.097,7.76,-9.76,-1.66,1.30,2.60,3.15,
7.107,7.76,-9.76,-1.66,1.08,2.86,3.44,
7.108,6.91,-10.03,-1.81,1.08,2.86,3.44,
7.108,6.13,-10.32,-1.79,1.08,2.86,3.44,
7.109,6.13,-10.32,-1.79,0.84,3.14,3.78,
7.111,5.35,-10.60,-1.60,0.84,3.14,3.78,
7.112,5.35,-10.60,-1.60,0.60,3.44,4.15,
7.13,4.60,-10.99,-1.21,0.60,3.44,4.15,
7.131,4.60,-10.99,-1.21,0.36,3.74,4.57,
7.131,4.60,-10.99,-1.21,0.13,4.03,5.02,
7.132,3.83,-11.43,-0.56,0.13,4.03,5.02,
7.132,3.24,-11.89,0.34,0.13,4.03,5.02,
7.132,3.24,-11.89,0.34,-0.09,4.32,5.51,
7.132,2.95,-12.32,1.18,-0.09,4.32,5.51,
7.133,2.95,-12.32,1.18,-0.28,4.62,6.02,
7.143,3.02,-12.91,1.85,-0.28,4.62,6.02,
7.144,3.02,-12.91,1.85,-0.46,4.90,6.55,
7.144,3.64,-13.64,2.34,-0.46,4.90,6.55,
7.145,3.64,-13.64,2.34,-0.63,5.14,7.08,
7.146,3.64,-13.64,2.34,-0.77,5.31,7.60,
7.147,4.92,-14.44,2.80,-0.77,5.31,7.60,
7.164,4.92,-14.44,2.80,-0.89,5.44,8.09,
7.165,6.88,-15.25,3.13,-0.89,5.44,8.09,
7.166,9.62,-15.90,3.12,-0.89,5.44,8.09,
7.166,9.62,-15.90,3.12,-0.99,5.53,8.51,
7.166,12.97,-16.23,2.70,-0.99,5.53,8.51,
7.167,12.97,-16.23,2.70,-1.09,5.57,8.85,
7.168,12.97,-16.23,2.70,-1.19,5.53,9.06,
7.169,16.62,-15.94,1.98,-1.19,5.53,9.06,
7.171,16.62,-15.94,1.98,-1.27,5.46,9.11,
7.171,20.08,-15.17,1.26,-1.27,5.46,9.11,
7.179,22.89,-14.16,0.56,-1.27,5.46,9.11,
7.18,22.89,-14.16,0.56,-1.34,5.39,8.99,
7.18,24.73,-13.26,-0.22,-1.34,5.39,8.99,
7.181,24.73,-13.26,-0.22,-1.40,5.29,8.72,
7.231,24.73,-13.26,-0.22,-1.46,5.15,8.35,
7.232,26.01,-12.27,-0.60,-1.46,5.15,8.35,
7.233,26.01,-12.27,-0.60,-1.50,4.95,7.92,
7.233,26.77,-11.32,-0.78,-1.50,4.95,7.92,
7.234,26.99,-10.46,-0.74,-1.50,4.95,7.92,
7.235,26.99,-10.46,-0.74,-1.52,4.69,7.44,
7.235,26.99,-10.46,-0.74,-1.52,4.34,6.94,
7.235,26.55,-9.63,-0.55,-1.52,4.34,6.94,
7.236,25.34,-8.93,-0.34,-1.52,4.34,6.94,
7.236,25.34,-8.93,-0.34,-1.49,3.92,6.44,
7.237,23.45,-8.35,-0.03,-1.49,3.92,6.44,
7.237,23.45,-8.35,-0.03,-1.44,3.42,5.94,
7.238,23.45,-8.35,-0.03,-1.36,2.88,5.52,
7.238,21.33,-8.06,0.37,-1.36,2.88,5.52,
7.239,19.25,-8.09,0.66,-1.36,2.88,5.52,
7.239,19.25,-8.09,0.66,-1.27,2.34,5.18,
7.24,19.25,-8.09,0.66,-1.19,1.82,4.93,
7.24,17.14,-8.14,0.80,-1.19,1.82,4.93,
7.24,17.14,-8.14,0.80,-1.15,1.34,4.77,
7.241,15.18,-8.13,1.05,-1.15,1.34,4.77,
7.241,13.73,-8.21,1.47,-1.15,1.34,4.77,
7.242,13.73,-8.21,1.47,-1.12,0.94,4.68,
7.242,13.73,-8.21,1.47,-1.09,0.64,4.67,
7.269,12.93,-8.46,2.05,-1.09,0.64,4.67,
7.27,12.69,-8.81,2.63,-1.09,0.64,4.67,
7.27,12.69,-8.81,2.63,-1.07,0.44,4.70,
7.27,12.76,-9.18,3.17,-1.07,0.44,4.70,
7.271,12.76,-9.18,3.17,-1.05,0.35,4.74,
