
time,ax,ay,az,wx,wy,wz,
0.002,0.40,-0.16,-1.48,0.36,-0.93,0.40,
0.003,0.40,-0.16,-1.48,0.30,-0.88,0.36,
0.003,0.40,-0.16,-1.48,0.24,-0.80,0.31,
0.003,0.33,0.03,-1.13,0.24,-0.80,0.31,
0.006,0.33,0.03,-1.13,0.17,-0.74,0.26,
0.006,0.38,0.05,-0.70,0.17,-0.74,0.26,
0.01,0.62,-0.14,-0.41,0.17,-0.74,0.26,
0.011,0.62,-0.14,-0.41,0.09,-0.69,0.21,
0.015,0.82,-0.24,-0.19,0.09,-0.69,0.21,
0.016,0.82,-0.24,-0.19,0.02,-0.63,0.17,
0.02,0.71,-0.29,0.04,0.02,-0.63,0.17,
0.02,0.71,-0.29,0.04,-0.04,-0.54,0.11,
0.031,0.71,-0.29,0.04,-0.08,-0.44,0.07,
0.032,0.49,-0.32,0.17,-0.08,-0.44,0.07,
0.033,0.49,-0.32,0.17,-0.11,-0.35,0.04,
0.033,0.32,-0.30,0.13,-0.11,-0.35,0.04,
0.035,0.20,-0.35,-0.14,-0.11,-0.35,0.04,
0.035,0.20,-0.35,-0.14,-0.15,-0.28,0.01,
0.039,0.13,-0.50,-0.34,-0.15,-0.28,0.01,
0.04,0.13,-0.50,-0.34,-0.20,-0.25,-0.02,
0.075,0.13,-0.50,-0.34,-0.27,-0.24,-0.03,
0.076,-0.24,-0.59,-0.40,-0.27,-0.24,-0.03,
0.076,-0.81,-0.43,-0.02,-0.27,-0.24,-0.03,
0.077,-0.81,-0.43,-0.02,-0.32,-0.19,-0.03,
0.077,-1.24,-0.22,0.17,-0.32,-0.19,-0.03,
0.078,-1.24,-0.22,0.17,-0.33,-0.11,-0.00,
0.08,-1.24,-0.22,0.17,-0.32,-0.02,0.04,
0.08,-1.40,-0.08,0.16,-0.32,-0.02,0.04,
0.081,-1.27,-0.12,0.06,-0.32,-0.02,0.04,
0.081,-1.27,-0.12,0.06,-0.29,0.06,0.10,
0.081,-0.97,-0.34,-0.01,-0.29,0.06,0.10,
0.082,-0.97,-0.34,-0.01,-0.28,0.11,0.15,
0.082,-0.68,-0.56,0.02,-0.28,0.11,0.15,
0.082,-0.68,-0.56,0.02,-0.28,0.13,0.19,
0.083,-0.41,-0.74,0.07,-0.28,0.13,0.19,
0.083,-0.41,-0.74,0.07,-0.29,0.12,0.22,
0.084,-0.30,-0.75,0.16,-0.29,0.12,0.22,
0.084,-0.30,-0.75,0.16,-0.32,0.12,0.23,
0.088,-0.30,-0.75,0.16,-0.36,0.11,0.23,
0.089,-0.27,-0.74,0.13,-0.36,0.11,0.23,
0.098,-0.27,-0.74,0.13,-0.42,0.09,0.24,
0.099,-0.34,-0.76,-0.06,-0.42,0.09,0.24,
0.099,-0.34,-0.76,-0.06,-0.49,0.11,0.25,
0.099,-0.39,-0.71,-0.07,-0.49,0.11,0.25,
0.103,-0.39,-0.71,-0.07,-0.55,0.18,0.27,
0.104,-0.53,-0.74,-0.01,-0.55,0.18,0.27,
0.117,-0.53,-0.74,-0.01,-0.59,0.27,0.30,
0.118,-0.60,-0.74,0.03,-0.59,0.27,0.30,
0.119,-0.60,-0.74,0.03,-0.62,0.33,0.33,
0.119,-0.56,-0.82,0.05,-0.62,0.33,0.33,
0.119,-0.56,-0.82,0.05,-0.65,0.39,0.37,
0.12,-0.56,-0.97,0.10,-0.65,0.39,0.37,
0.123,-0.56,-0.97,0.10,-0.67,0.44,0.41,
0.123,-0.54,-1.07,0.09,-0.67,0.44,0.41,
0.135,-0.54,-1.07,0.09,-0.68,0.49,0.45,
0.135,-1.04,-1.54,0.12,-0.68,0.49,0.45,
0.136,-1.04,-1.54,0.12,-0.66,0.49,0.51,
0.136,-1.16,-1.56,0.04,-0.66,0.49,0.51,
0.137,-1.00,-1.34,0.17,-0.66,0.49,0.51,
0.138,-1.00,-1.34,0.17,-0.61,0.51,0.63,
0.196,-0.46,-0.83,0.42,-0.61,0.51,0.63,
0.196,-0.46,-0.83,0.42,-0.53,0.51,0.74,
0.197,0.11,-0.36,0.61,-0.53,0.51,0.74,
0.197,0.11,-0.36,0.61,-0.41,0.53,0.82,
0.197,0.11,-0.36,0.61,-0.24,0.56,0.87,
0.198,0.64,-0.07,0.70,-0.24,0.56,0.87,
0.198,0.64,-0.07,0.70,-0.05,0.61,0.86,
0.198,0.95,0.19,0.74,-0.05,0.61,0.86,
0.199,0.95,0.19,0.74,0.16,0.63,0.80,
0.199,1.04,0.37,0.58,0.16,0.63,0.80,
0.199,1.00,0.51,0.10,0.16,0.63,0.80,
0.199,1.00,0.51,0.10,0.36,0.58,0.69,
0.2,1.00,0.51,0.10,0.53,0.46,0.57,
0.2,0.84,0.49,-0.54,0.53,0.46,0.57,
0.2,0.55,0.39,-1.26,0.53,0.46,0.57,
0.2,0.55,0.39,-1.26,0.67,0.29,0.44,
0.201,0.55,0.39,-1.26,0.77,0.10,0.32,
0.201,0.20,0.47,-2.06,0.77,0.10,0.32,
0.201,-0.13,0.45,-2.66,0.77,0.10,0.32,
0.202,-0.13,0.45,-2.66,0.83,-0.07,0.22,
0.202,-0.13,0.45,-2.66,0.86,-0.25,0.15,
0.202,-0.22,0.40,-3.18,0.86,-0.25,0.15,
0.203,-0.22,0.40,-3.18,0.86,-0.44,0.11,
0.203,-0.59,0.40,-3.69,0.86,-0.44,0.11,
0.203,-1.17,0.47,-3.69,0.86,-0.44,0.11,
0.204,-1.17,0.47,-3.69,0.82,-0.59,0.10,
0.206,-1.44,0.52,-3.78,0.82,-0.59,0.10,
0.206,-1.44,0.52,-3.78,0.78,-0.72,0.11,
0.212,-1.44,0.52,-3.78,0.73,-0.81,0.16,
0.213,-1.55,0.53,-3.90,0.73,-0.81,0.16,
0.216,-1.48,0.55,-3.92,0.73,-0.81,0.16,
0.217,-1.48,0.55,-3.92,0.67,-0.86,0.22,
0.22,-1.48,0.55,-3.92,0.61,-0.88,0.28,
0.221,-1.20,0.51,-3.91,0.61,-0.88,0.28,
0.234,-1.20,0.51,-3.91,0.53,-0.88,0.33,
0.235,-0.87,0.44,-3.77,0.53,-0.88,0.33,
0.236,-0.87,0.44,-3.77,0.45,-0.89,0.36,
0.236,-0.57,0.40,-3.59,0.45,-0.89,0.36,
0.237,-0.57,0.40,-3.59,0.35,-0.88,0.38,
0.237,-0.30,0.36,-3.37,0.35,-0.88,0.38,
0.24,-0.30,0.36,-3.37,0.26,-0.86,0.40,
0.241,-0.12,0.35,-3.12,0.26,-0.86,0.40,
0.244,-0.12,0.35,-3.12,0.17,-0.82,0.40,
0.246,-0.07,0.32,-2.81,0.17,-0.82,0.40,
0.249,-0.07,0.32,-2.81,0.09,-0.77,0.39,
0.25,-0.02,0.37,-2.58,0.09,-0.77,0.39,
0.254,-0.02,0.37,-2.58,0.03,-0.71,0.39,
0.255,-0.02,0.37,-2.29,0.03,-0.71,0.39,
0.287,-0.02,0.37,-2.29,-0.03,-0.64,0.39,
0.288,-0.06,0.36,-2.11,-0.03,-0.64,0.39,
0.288,-0.06,0.36,-2.11,-0.07,-0.56,0.40,
0.289,-0.19,0.30,-1.99,-0.07,-0.56,0.40,
0.289,-0.32,0.21,-1.83,-0.07,-0.56,0.40,
0.289,-0.32,0.21,-1.83,-0.12,-0.48,0.41,
0.29,-0.35,0.10,-1.69,-0.12,-0.48,0.41,
0.29,-0.35,0.10,-1.69,-0.15,-0.41,0.42,
0.29,-0.35,0.10,-1.69,-0.17,-0.36,0.43,
0.291,-0.32,0.02,-1.56,-0.17,-0.36,0.43,
0.291,-0.32,0.02,-1.56,-0.18,-0.33,0.44,
0.292,-0.25,-0.04,-1.48,-0.18,-0.33,0.44,
0.292,-0.25,-0.04,-1.48,-0.16,-0.32,0.44,
0.293,-0.30,-0.10,-1.41,-0.16,-0.32,0.44,
0.296,-0.30,-0.10,-1.41,-0.13,-0.33,0.45,
0.297,-0.46,-0.17,-1.45,-0.13,-0.33,0.45,
0.298,-0.46,-0.17,-1.45,-0.08,-0.35,0.45,
0.299,-0.61,-0.23,-1.59,-0.08,-0.35,0.45,
0.327,-0.61,-0.23,-1.59,-0.01,-0.40,0.47,
0.327,-0.65,-0.32,-1.83,-0.01,-0.40,0.47,
0.328,-0.65,-0.32,-1.83,0.06,-0.47,0.48,
0.328,-0.48,-0.42,-2.04,0.06,-0.47,0.48,
0.329,-0.48,-0.42,-2.04,0.14,-0.57,0.49,
0.329,-0.30,-0.50,-2.34,0.14,-0.57,0.49,
0.329,-0.30,-0.50,-2.34,0.22,-0.70,0.50,
0.33,-0.08,-0.55,-2.45,0.22,-0.70,0.50,
0.33,-0.13,-0.64,-2.81,0.22,-0.70,0.50,
0.331,-0.13,-0.64,-2.81,0.32,-0.86,0.51,
0.331,-0.11,-0.69,-3.18,0.32,-0.86,0.51,
0.331,-0.11,-0.69,-3.18,0.42,-1.03,0.50,
0.336,-0.11,-0.69,-3.18,0.52,-1.21,0.49,
0.337,-0.09,-0.79,-3.69,0.52,-1.21,0.49,
0.337,-0.09,-0.79,-3.69,0.60,-1.41,0.47,
0.338,-0.02,-0.89,-4.26,0.60,-1.41,0.47,
0.342,-0.01,-1.02,-4.80,0.60,-1.41,0.47,
0.343,-0.01,-1.02,-4.80,0.66,-1.62,0.45,
0.347,-0.01,-1.20,-5.24,0.66,-1.62,0.45,
0.348,-0.01,-1.20,-5.24,0.70,-1.84,0.44,
0.352,-0.02,-1.45,-5.67,0.70,-1.84,0.44,
0.352,-0.02,-1.45,-5.67,0.73,-2.06,0.43,
0.357,-0.02,-1.45,-5.67,0.74,-2.26,0.43,
0.357,-0.03,-1.66,-5.96,0.74,-2.26,0.43,
0.367,-0.03,-1.66,-5.96,0.74,-2.48,0.44,
0.367,-0.14,-1.91,-6.30,0.74,-2.48,0.44,
0.368,-0.14,-1.91,-6.30,0.73,-2.71,0.46,
0.368,-0.27,-2.20,-6.78,0.73,-2.71,0.46,
0.371,-0.27,-2.20,-6.78,0.70,-2.94,0.51,
0.372,-0.37,-2.52,-7.27,0.70,-2.94,0.51,
0.377,-0.37,-2.52,-7.27,0.65,-3.16,0.56,
0.377,0.28,-2.90,-8.17,0.65,-3.16,0.56,
0.381,-0.16,-3.22,-8.05,0.65,-3.16,0.56,
0.382,-0.16,-3.22,-8.05,0.56,-3.39,0.60,
0.386,-0.39,-3.46,-7.93,0.56,-3.39,0.60,
0.387,-0.39,-3.46,-7.93,0.46,-3.62,0.65,
0.427,-0.39,-3.46,-7.93,0.38,-3.87,0.73,
0.428,-0.48,-3.74,-7.89,0.38,-3.87,0.73,
0.428,-0.48,-3.74,-7.89,0.29,-4.13,0.83,
0.429,-0.31,-4.07,-7.67,0.29,-4.13,0.83,
0.429,-0.10,-4.45,-7.38,0.29,-4.13,0.83,
0.429,-0.10,-4.45,-7.38,0.21,-4.37,0.93,
0.43,-0.10,-4.45,-7.38,0.16,-4.61,1.01,
0.43,0.20,-4.82,-6.99,0.16,-4.61,1.01,
0.431,0.54,-5.19,-6.47,0.16,-4.61,1.01,
0.431,0.54,-5.19,-6.47,0.13,-4.87,1.09,
0.431,0.95,-5.58,-6.05,0.13,-4.87,1.09,
0.432,0.95,-5.58,-6.05,0.14,-5.15,1.15,
0.432,0.95,-5.58,-6.05,0.19,-5.48,1.21,
0.432,1.25,-5.98,-5.68,0.19,-5.48,1.21,
0.433,1.25,-5.98,-5.68,0.27,-5.82,1.26,
0.433,1.41,-6.36,-5.27,0.27,-5.82,1.26,
0.433,1.41,-6.36,-5.27,0.37,-6.16,1.32,
0.434,1.65,-6.64,-4.81,0.37,-6.16,1.32,
0.436,1.98,-7.00,-4.49,0.37,-6.16,1.32,
0.436,1.98,-7.00,-4.49,0.50,-6.47,1.37,
0.44,1.98,-7.00,-4.49,0.64,-6.76,1.42,
0.44,2.22,-7.47,-4.41,0.64,-6.76,1.42,
0.45,2.22,-7.47,-4.41,0.78,-7.02,1.45,
0.451,2.35,-7.93,-4.38,0.78,-7.02,1.45,
0.451,2.37,-8.40,-4.37,0.78,-7.02,1.45,
0.451,2.37,-8.40,-4.37,0.91,-7.26,1.49,
0.454,2.34,-8.89,-4.33,0.91,-7.26,1.49,
0.455,2.34,-8.89,-4.33,1.03,-7.48,1.52,
0.467,2.34,-8.89,-4.33,1.13,-7.70,1.56,
0.468,2.56,-9.30,-4.40,1.13,-7.70,1.56,
0.468,2.56,-9.30,-4.40,1.19,-7.92,1.59,
0.469,2.99,-9.65,-4.60,1.19,-7.92,1.59,
0.469,2.89,-9.97,-4.28,1.19,-7.92,1.59,
0.47,2.89,-9.97,-4.28,1.21,-8.10,1.63,
0.474,2.89,-9.97,-4.28,1.20,-8.22,1.67,
0.474,2.52,-10.29,-4.07,1.20,-8.22,1.67,
0.53,2.52,-10.29,-4.07,1.15,-8.26,1.75,
0.531,1.69,-10.62,-3.38,1.15,-8.26,1.75,
0.531,1.69,-10.62,-3.38,1.10,-8.23,1.88,
0.531,1.75,-10.94,-3.66,1.10,-8.23,1.88,
0.532,1.75,-10.94,-3.66,1.01,-8.16,2.04,
0.532,1.18,-11.24,-3.03,1.01,-8.16,2.04,
0.533,1.32,-11.47,-3.02,1.01,-8.16,2.04,
0.533,1.32,-11.47,-3.02,0.90,-8.02,2.25,
0.533,1.32,-11.47,-3.02,0.76,-7.84,2.46,
0.534,1.28,-11.58,-2.59,0.76,-7.84,2.46,
0.534,1.28,-11.58,-2.59,0.61,-7.61,2.69,
0.535,1.19,-11.67,-1.96,0.61,-7.61,2.69,
0.535,1.19,-11.67,-1.96,0.45,-7.31,2.93,
0.536,1.58,-11.65,-1.48,0.45,-7.31,2.93,
0.536,1.58,-11.65,-1.48,0.28,-6.98,3.16,
0.536,2.36,-11.62,-1.18,0.28,-6.98,3.16,
0.537,2.36,-11.62,-1.18,0.10,-6.62,3.36,
0.537,2.96,-11.53,-0.73,0.10,-6.62,3.36,
0.538,2.96,-11.53,-0.73,-0.08,-6.23,3.53,
0.538,3.17,-11.44,-0.15,-0.08,-6.23,3.53,
0.539,3.17,-11.44,-0.15,-0.25,-5.80,3.69,
0.539,3.24,-11.43,0.25,-0.25,-5.80,3.69,
0.54,3.23,-11.39,0.41,-0.25,-5.80,3.69,
0.54,3.23,-11.39,0.41,-0.43,-5.34,3.84,
0.54,3.16,-11.40,0.51,-0.43,-5.34,3.84,
0.541,3.16,-11.40,0.51,-0.62,-4.84,3.97,
0.543,3.16,-11.40,0.51,-0.84,-4.33,4.11,
0.544,3.00,-11.30,0.51,-0.84,-4.33,4.11,
0.577,2.95,-11.20,0.55,-0.84,-4.33,4.11,
0.578,2.95,-11.20,0.55,-1.06,-3.83,4.25,
0.578,2.88,-11.19,0.48,-1.06,-3.83,4.25,
0.579,2.88,-11.19,0.48,-1.29,-3.33,4.37,
0.579,2.89,-11.20,0.38,-1.29,-3.33,4.37,
0.58,2.89,-11.20,0.38,-1.54,-2.86,4.49,
0.58,2.97,-11.23,0.26,-1.54,-2.86,4.49,
0.581,2.97,-11.23,0.26,-1.81,-2.42,4.59,
0.582,3.10,-11.31,0.04,-1.81,-2.42,4.59,
0.582,3.10,-11.31,0.04,-2.09,-2.02,4.68,
0.583,3.21,-11.52,-0.29,-2.09,-2.02,4.68,
0.584,3.21,-11.52,-0.29,-2.39,-1.64,4.76,
0.584,3.29,-11.85,-0.57,-2.39,-1.64,4.76,
0.585,3.29,-11.85,-0.57,-2.72,-1.27,4.82,
0.585,3.29,-11.85,-0.57,-3.07,-0.92,4.88,
0.586,3.38,-12.19,-0.77,-3.07,-0.92,4.88,
0.586,3.38,-12.19,-0.77,-3.44,-0.59,4.93,
0.587,3.56,-12.56,-0.75,-3.44,-0.59,4.93,
0.591,3.56,-12.56,-0.75,-3.81,-0.27,4.99,
0.592,3.74,-12.98,-0.49,-3.81,-0.27,4.99,
0.602,3.74,-12.98,-0.49,-4.17,0.02,5.04,
0.603,3.91,-13.45,-0.03,-4.17,0.02,5.04,
0.603,3.91,-13.45,-0.03,-4.48,0.28,5.08,
0.604,4.14,-13.83,0.64,-4.48,0.28,5.08,
0.605,4.14,-13.83,0.64,-4.74,0.48,5.14,
0.606,4.43,-14.12,1.43,-4.74,0.48,5.14,
0.611,4.43,-14.12,1.43,-4.95,0.63,5.19,
0.612,4.86,-14.33,2.22,-4.95,0.63,5.19,
0.616,4.86,-14.33,2.22,-5.08,0.74,5.23,
0.617,5.70,-14.38,3.35,-5.08,0.74,5.23,
0.621,5.70,-14.38,3.35,-5.11,0.85,5.24,
0.621,6.36,-14.52,3.97,-5.11,0.85,5.24,
0.626,6.36,-14.52,3.97,-5.08,0.89,5.22,
0.626,6.71,-14.65,4.36,-5.08,0.89,5.22,
0.648,6.71,-14.65,4.36,-5.03,0.84,5.25,
0.649,7.02,-14.83,4.43,-5.03,0.84,5.25,
0.65,7.02,-14.83,4.43,-4.97,0.74,5.30,
0.65,7.34,-14.96,4.31,-4.97,0.74,5.30,
0.651,7.81,-15.01,4.12,-4.97,0.74,5.30,
0.651,7.81,-15.01,4.12,-4.92,0.65,5.37,
0.651,8.46,-14.89,3.86,-4.92,0.65,5.37,
0.652,8.46,-14.89,3.86,-4.88,0.58,5.44,
0.652,8.46,-14.89,3.86,-4.85,0.52,5.48,
0.652,9.09,-14.61,3.64,-4.85,0.52,5.48,
0.654,9.61,-14.22,3.62,-4.85,0.52,5.48,
0.655,9.61,-14.22,3.62,-4.83,0.47,5.49,
0.66,10.05,-13.75,3.73,-4.83,0.47,5.49,
0.661,10.05,-13.75,3.73,-4.81,0.41,5.46,
0.664,10.36,-13.28,4.02,-4.81,0.41,5.46,
0.665,10.36,-13.28,4.02,-4.79,0.33,5.40,
0.669,10.64,-12.84,4.38,-4.79,0.33,5.40,
0.669,10.64,-12.84,4.38,-4.75,0.22,5.30,
0.673,10.77,-12.45,4.83,-4.75,0.22,5.30,
0.674,10.77,-12.45,4.83,-4.70,0.08,5.19,
0.683,10.66,-12.09,5.40,-4.70,0.08,5.19,
0.684,10.66,-12.09,5.40,-4.63,-0.07,5.08,
0.684,10.43,-11.57,5.97,-4.63,-0.07,5.08,
0.685,10.43,-11.57,5.97,-4.53,-0.21,4.97,
0.688,10.43,-11.57,5.97,-4.41,-0.34,4.86,
0.689,10.13,-10.96,6.50,-4.41,-0.34,4.86,
0.724,10.13,-10.96,6.50,-4.27,-0.47,4.76,
0.724,9.88,-10.34,7.00,-4.27,-0.47,4.76,
0.725,9.88,-10.34,7.00,-4.11,-0.58,4.67,
0.725,9.70,-9.68,7.47,-4.11,-0.58,4.67,
0.726,9.70,-9.68,7.47,-3.93,-0.69,4.58,
0.726,9.52,-9.06,7.83,-3.93,-0.69,4.58,
0.727,9.52,-9.06,7.83,-3.74,-0.78,4.51,
0.727,9.31,-8.38,8.10,-3.74,-0.78,4.51,
0.728,9.31,-8.38,8.10,-3.55,-0.85,4.44,
0.729,9.09,-7.84,8.22,-3.55,-0.85,4.44,
0.729,8.88,-7.33,8.29,-3.55,-0.85,4.44,
0.729,8.88,-7.33,8.29,-3.35,-0.89,4.38,
0.73,8.88,-7.33,8.29,-3.17,-0.89,4.34,
0.73,8.77,-6.80,8.32,-3.17,-0.89,4.34,
0.731,8.75,-6.24,8.39,-3.17,-0.89,4.34,
0.731,8.75,-6.24,8.39,-2.98,-0.87,4.31,
0.74,8.75,-6.24,8.39,-2.80,-0.82,4.27,
0.741,8.89,-5.76,8.44,-2.80,-0.82,4.27,
0.743,9.05,-5.28,8.46,-2.80,-0.82,4.27,
0.744,9.05,-5.28,8.46,-2.62,-0.76,4.23,
0.744,9.05,-5.28,8.46,-2.45,-0.69,4.18,
0.745,9.15,-4.86,8.44,-2.45,-0.69,4.18,
0.779,9.15,-4.86,8.44,-2.27,-0.62,4.13,
0.78,9.14,-4.46,8.38,-2.27,-0.62,4.13,
0.78,9.14,-4.46,8.38,-2.11,-0.54,4.07,
0.78,8.99,-4.03,8.29,-2.11,-0.54,4.07,
0.781,8.99,-4.03,8.29,-1.94,-0.49,4.00,
0.781,8.85,-3.55,8.21,-1.94,-0.49,4.00,
0.782,8.85,-3.55,8.21,-1.78,-0.43,3.96,
0.782,8.68,-3.04,8.12,-1.78,-0.43,3.96,
0.782,8.68,-3.04,8.12,-1.61,-0.39,3.91,
0.782,8.57,-2.54,8.02,-1.61,-0.39,3.91,
0.783,8.57,-2.54,8.02,-1.44,-0.36,3.87,
0.783,8.56,-2.05,7.84,-1.44,-0.36,3.87,
0.783,8.56,-2.05,7.84,-1.28,-0.34,3.83,
0.784,8.57,-1.64,7.63,-1.28,-0.34,3.83,
0.784,8.59,-1.16,7.36,-1.28,-0.34,3.83,
0.784,8.59,-1.16,7.36,-1.13,-0.33,3.78,
0.786,8.59,-1.16,7.36,-0.99,-0.33,3.74,
0.786,8.63,-0.73,7.02,-0.99,-0.33,3.74,
0.815,8.66,-0.34,6.67,-0.99,-0.33,3.74,
0.816,8.66,-0.34,6.67,-0.87,-0.33,3.68,
0.816,8.66,-0.34,6.67,-0.77,-0.33,3.62,
0.816,8.69,0.15,6.38,-0.77,-0.33,3.62,
0.817,8.68,0.50,6.07,-0.77,-0.33,3.62,
0.817,8.68,0.50,6.07,-0.70,-0.33,3.54,
0.818,8.68,0.50,6.07,-0.64,-0.34,3.46,
0.818,8.71,0.81,5.85,-0.64,-0.34,3.46,
0.818,8.71,0.81,5.85,-0.61,-0.34,3.36,
0.819,8.80,1.13,5.64,-0.61,-0.34,3.36,
0.819,8.80,1.13,5.64,-0.58,-0.34,3.24,
0.82,8.71,1.44,5.45,-0.58,-0.34,3.24,
0.82,8.71,1.44,5.45,-0.58,-0.35,3.13,
0.82,8.57,1.74,5.36,-0.58,-0.35,3.13,
0.825,8.57,1.74,5.36,-0.58,-0.36,3.03,
0.826,8.34,2.06,5.21,-0.58,-0.36,3.03,
0.837,8.06,2.28,5.11,-0.58,-0.36,3.03,
0.838,8.06,2.28,5.11,-0.59,-0.34,2.95,
0.838,8.06,2.28,5.11,-0.61,-0.31,2.87,
0.839,7.82,2.50,5.03,-0.61,-0.31,2.87,
0.84,7.82,2.50,5.03,-0.64,-0.29,2.81,
0.84,7.65,2.69,4.96,-0.64,-0.29,2.81,
0.845,7.65,2.69,4.96,-0.67,-0.26,2.76,
0.846,7.54,2.82,4.92,-0.67,-0.26,2.76,
0.849,7.47,2.99,4.89,-0.67,-0.26,2.76,
0.85,7.47,2.99,4.89,-0.71,-0.23,2.71,
0.854,7.47,2.99,4.89,-0.75,-0.20,2.67,
0.855,7.46,3.06,4.87,-0.75,-0.20,2.67,
0.881,7.46,3.21,4.91,-0.75,-0.20,2.67,
0.882,7.46,3.21,4.91,-0.78,-0.18,2.63,
0.883,7.48,3.39,4.92,-0.78,-0.18,2.63,
0.883,7.48,3.39,4.92,-0.83,-0.16,2.60,
0.883,7.55,3.55,5.02,-0.83,-0.16,2.60,
0.884,7.55,3.55,5.02,-0.87,-0.15,2.57,
0.884,7.55,3.55,5.02,-0.90,-0.14,2.55,
0.884,7.66,3.71,5.11,-0.90,-0.14,2.55,
0.885,7.66,3.71,5.11,-0.93,-0.11,2.52,
0.885,7.73,3.89,5.27,-0.93,-0.11,2.52,
0.885,7.86,4.10,5.39,-0.93,-0.11,2.52,
0.886,7.86,4.10,5.39,-0.95,-0.08,2.50,
0.888,7.86,4.10,5.39,-0.96,-0.06,2.46,
0.889,7.96,4.32,5.50,-0.96,-0.06,2.46,
0.894,8.06,4.59,5.60,-0.96,-0.06,2.46,
0.894,8.06,4.59,5.60,-0.97,-0.04,2.43,
0.898,8.25,4.81,5.68,-0.97,-0.04,2.43,
0.899,8.25,4.81,5.68,-0.97,-0.02,2.40,
0.903,8.35,5.07,5.78,-0.97,-0.02,2.40,
0.904,8.35,5.07,5.78,-0.98,0.00,2.37,
0.908,8.53,5.34,5.87,-0.98,0.00,2.37,
0.909,8.53,5.34,5.87,-0.97,0.03,2.33,
0.918,8.79,5.68,5.97,-0.97,0.03,2.33,
0.92,8.79,5.68,5.97,-0.97,0.06,2.28,
0.92,8.79,5.68,5.97,-0.97,0.10,2.22,
0.92,9.06,5.96,6.07,-0.97,0.10,2.22,
0.923,9.06,5.96,6.07,-0.96,0.14,2.16,
0.923,9.31,6.28,6.10,-0.96,0.14,2.16,
0.964,9.48,6.61,6.08,-0.96,0.14,2.16,
0.965,9.48,6.61,6.08,-0.96,0.19,2.08,
0.965,9.53,6.91,6.03,-0.96,0.19,2.08,
0.966,9.53,6.91,6.03,-0.97,0.25,1.98,
0.966,9.57,7.11,5.98,-0.97,0.25,1.98,
0.966,9.57,7.11,5.98,-0.98,0.32,1.88,
0.967,9.64,7.34,5.96,-0.98,0.32,1.88,
0.967,9.64,7.34,5.96,-1.00,0.39,1.78,
0.967,9.64,7.34,5.96,-1.03,0.46,1.67,
0.968,9.65,7.47,5.93,-1.03,0.46,1.67,
0.968,9.65,7.47,5.93,-1.07,0.52,1.56,
0.968,9.68,7.62,5.95,-1.07,0.52,1.56,
0.969,9.66,7.69,6.01,-1.07,0.52,1.56,
0.969,9.66,7.69,6.01,-1.11,0.57,1.46,
0.97,9.66,7.69,6.01,-1.14,0.61,1.36,
0.97,9.65,7.77,6.10,-1.14,0.61,1.36,
0.97,9.65,7.77,6.10,-1.18,0.65,1.26,
0.97,9.58,7.81,6.27,-1.18,0.65,1.26,
0.971,9.58,7.81,6.27,-1.21,0.68,1.17,
0.972,9.54,7.85,6.52,-1.21,0.68,1.17,
0.976,9.54,7.85,6.52,-1.23,0.71,1.07,
0.976,9.52,7.86,6.78,-1.23,0.71,1.07,
0.982,9.52,7.86,6.78,-1.24,0.72,0.99,
0.982,9.48,7.91,7.15,-1.24,0.72,0.99,
0.986,9.48,7.91,7.15,-1.23,0.73,0.90,
0.987,9.57,7.92,7.49,-1.23,0.73,0.90,
0.991,9.57,7.92,7.49,-1.19,0.73,0.82,
0.992,9.61,7.92,7.79,-1.19,0.73,0.82,
1.002,9.62,7.83,8.11,-1.19,0.73,0.82,
1.004,9.62,7.83,8.11,-1.14,0.72,0.73,
1.004,9.73,7.78,8.45,-1.14,0.72,0.73,
1.005,9.73,7.78,8.45,-1.07,0.69,0.65,
1.006,9.73,7.78,8.45,-0.98,0.66,0.57,
1.006,9.85,7.73,8.75,-0.98,0.66,0.57,
1.047,9.85,7.73,8.75,-0.87,0.62,0.50,
1.048,10.05,7.62,9.01,-0.87,0.62,0.50,
1.048,10.42,7.45,9.25,-0.87,0.62,0.50,
1.049,10.42,7.45,9.25,-0.74,0.57,0.43,
1.049,10.82,7.23,9.49,-0.74,0.57,0.43,
1.049,10.82,7.23,9.49,-0.60,0.51,0.37,
1.05,10.82,7.23,9.49,-0.44,0.45,0.32,
1.05,11.10,7.06,9.77,-0.44,0.45,0.32,
1.05,11.10,7.06,9.77,-0.26,0.40,0.28,
1.051,11.21,7.00,10.03,-0.26,0.40,0.28,
1.079,11.42,7.01,10.19,-0.26,0.40,0.28,
1.079,11.42,7.01,10.19,-0.08,0.37,0.23,
1.08,11.75,7.04,10.23,-0.08,0.37,0.23,
1.08,11.75,7.04,10.23,0.12,0.36,0.18,
1.081,12.06,7.09,10.17,0.12,0.36,0.18,
1.081,12.06,7.09,10.17,0.31,0.35,0.10,
1.082,12.39,7.13,9.96,0.31,0.35,0.10,
1.082,12.39,7.13,9.96,0.51,0.34,0.00,
1.083,12.39,7.13,9.96,0.69,0.33,-0.12,
1.083,12.60,7.17,9.69,0.69,0.33,-0.12,
1.083,12.60,7.17,9.69,0.86,0.31,-0.25,
1.084,12.83,7.16,9.46,0.86,0.31,-0.25,
1.084,12.83,7.16,9.46,1.01,0.28,-0.40,
1.085,13.08,7.06,9.14,1.01,0.28,-0.40,
1.085,13.08,7.06,9.14,1.15,0.23,-0.55,
1.085,13.37,6.84,8.77,1.15,0.23,-0.55,
1.086,13.37,6.84,8.77,1.27,0.18,-0.71,
1.086,13.67,6.53,8.43,1.27,0.18,-0.71,
1.086,13.67,6.53,8.43,1.37,0.13,-0.87,
1.087,13.93,6.15,8.15,1.37,0.13,-0.87,
1.087,14.11,5.77,7.96,1.37,0.13,-0.87,
1.088,14.11,5.77,7.96,1.47,0.10,-1.02,
1.097,14.11,5.77,7.96,1.56,0.08,-1.17,
1.098,14.27,5.37,7.81,1.56,0.08,-1.17,
1.099,14.27,5.37,7.81,1.65,0.07,-1.32,
1.099,14.46,5.04,7.68,1.65,0.07,-1.32,
1.099,14.46,5.04,7.68,1.73,0.06,-1.46,
1.1,14.69,4.66,7.40,1.73,0.06,-1.46,
1.136,14.94,4.24,7.22,1.73,0.06,-1.46,
1.137,14.94,4.24,7.22,1.81,0.04,-1.60,
1.138,15.22,3.77,6.98,1.81,0.04,-1.60,
1.138,15.22,3.77,6.98,1.90,-0.00,-1.73,
1.139,15.22,3.77,6.98,1.98,-0.04,-1.86,
1.139,15.54,3.34,6.65,1.98,-0.04,-1.86,
1.139,15.89,2.84,6.33,1.98,-0.04,-1.86,
1.14,15.89,2.84,6.33,2.06,-0.08,-1.99,
1.14,16.29,2.29,5.95,2.06,-0.08,-1.99,
1.14,16.29,2.29,5.95,2.13,-0.12,-2.12,
1.141,16.65,1.80,5.48,2.13,-0.12,-2.12,
1.141,16.65,1.80,5.48,2.19,-0.15,-2.26,
1.141,16.96,1.33,5.24,2.19,-0.15,-2.26,
1.142,16.96,1.33,5.24,2.23,-0.16,-2.40,
1.142,16.96,1.33,5.24,2.26,-0.15,-2.55,
1.143,17.24,0.95,5.09,2.26,-0.15,-2.55,
1.143,17.37,0.59,4.95,2.26,-0.15,-2.55,
1.143,17.37,0.59,4.95,2.29,-0.13,-2.71,
1.15,17.42,0.28,4.91,2.29,-0.13,-2.71,
1.152,17.42,0.28,4.91,2.32,-0.10,-2.87,
1.152,17.42,0.28,4.91,2.35,-0.06,-3.03,
1.152,17.42,-0.03,4.95,2.35,-0.06,-3.03,
1.156,17.42,-0.03,4.95,2.41,-0.02,-3.19,
1.157,17.37,-0.31,4.98,2.41,-0.02,-3.19,
1.185,17.37,-0.31,4.98,2.47,0.00,-3.36,
1.186,17.24,-0.74,5.01,2.47,0.00,-3.36,
1.187,17.24,-0.74,5.01,2.55,0.00,-3.55,
1.187,17.19,-1.18,5.16,2.55,0.00,-3.55,
1.187,17.19,-1.18,5.16,2.65,-0.01,-3.75,
1.188,17.10,-1.66,5.38,2.65,-0.01,-3.75,
1.188,17.10,-1.66,5.38,2.77,-0.04,-3.96,
1.188,16.94,-2.18,5.52,2.77,-0.04,-3.96,
1.189,16.75,-2.74,5.44,2.77,-0.04,-3.96,
1.189,16.75,-2.74,5.44,2.90,-0.08,-4.19,
1.189,16.75,-2.74,5.44,3.04,-0.14,-4.43,
1.19,16.59,-3.41,5.38,3.04,-0.14,-4.43,
1.191,16.59,-3.41,5.38,3.17,-0.21,-4.67,
1.191,16.62,-4.22,5.26,3.17,-0.21,-4.67,
1.199,16.62,-4.22,5.26,3.29,-0.30,-4.91,
1.2,16.78,-5.12,5.16,3.29,-0.30,-4.91,
1.201,17.03,-6.14,4.87,3.29,-0.30,-4.91,
1.201,17.03,-6.14,4.87,3.40,-0.42,-5.17,
1.206,17.03,-6.14,4.87,3.48,-0.54,-5.43,
1.206,17.38,-7.30,4.44,3.48,-0.54,-5.43,
1.21,17.74,-8.60,3.95,3.48,-0.54,-5.43,
1.211,17.74,-8.60,3.95,3.54,-0.65,-5.70,
1.215,17.74,-8.60,3.95,3.56,-0.74,-5.98,
1.216,17.96,-9.98,3.45,3.56,-0.74,-5.98,
1.22,17.96,-9.98,3.45,3.55,-0.80,-6.26,
1.22,18.15,-11.40,2.96,3.55,-0.80,-6.26,
1.225,18.15,-11.40,2.96,3.51,-0.84,-6.53,
1.226,18.30,-12.85,2.52,3.51,-0.84,-6.53,
1.237,18.30,-12.85,2.52,3.44,-0.84,-6.80,
1.238,18.38,-14.30,2.11,3.44,-0.84,-6.80,
1.239,18.38,-14.30,2.11,3.36,-0.81,-7.04,
1.239,18.31,-15.62,1.57,3.36,-0.81,-7.04,
1.24,18.26,-16.91,1.17,3.36,-0.81,-7.04,
1.24,18.26,-16.91,1.17,3.26,-0.73,-7.25,
1.281,18.04,-18.09,0.98,3.26,-0.73,-7.25,
1.282,18.04,-18.09,0.98,3.14,-0.61,-7.44,
1.282,18.04,-18.09,0.98,3.02,-0.45,-7.62,
1.283,17.47,-19.31,0.66,3.02,-0.45,-7.62,
1.283,17.47,-19.31,0.66,2.91,-0.26,-7.78,
1.284,16.84,-20.64,0.42,2.91,-0.26,-7.78,
1.284,16.84,-20.64,0.42,2.80,-0.04,-7.92,
1.285,15.92,-21.71,0.28,2.80,-0.04,-7.92,
1.285,15.08,-22.61,0.34,2.80,-0.04,-7.92,
1.286,15.08,-22.61,0.34,2.71,0.19,-8.00,
1.286,15.08,-22.61,0.34,2.64,0.41,-8.04,
1.287,14.22,-23.12,0.52,2.64,0.41,-8.04,
1.287,13.33,-23.46,0.55,2.64,0.41,-8.04,
1.288,13.33,-23.46,0.55,2.62,0.62,-8.03,
1.32,12.23,-23.56,0.64,2.62,0.62,-8.03,
1.32,12.23,-23.56,0.64,2.62,0.82,-7.98,
1.321,12.23,-23.56,0.64,2.66,1.00,-7.88,
1.321,11.08,-23.43,0.70,2.66,1.00,-7.88,
1.322,9.95,-23.27,0.62,2.66,1.00,-7.88,
1.322,9.95,-23.27,0.62,2.72,1.13,-7.76,
1.323,9.95,-23.27,0.62,2.79,1.23,-7.62,
1.323,8.78,-23.05,0.47,2.79,1.23,-7.62,
1.324,8.78,-23.05,0.47,2.85,1.29,-7.46,
1.324,7.69,-22.77,0.13,2.85,1.29,-7.46,
1.324,6.62,-22.47,-0.16,2.85,1.29,-7.46,
1.325,6.62,-22.47,-0.16,2.91,1.34,-7.29,
1.325,6.62,-22.47,-0.16,2.95,1.34,-7.12,
1.326,5.65,-22.18,-0.53,2.95,1.34,-7.12,
1.326,5.65,-22.18,-0.53,2.97,1.33,-6.93,
1.327,4.84,-21.80,-0.85,2.97,1.33,-6.93,
1.327,4.84,-21.80,-0.85,2.97,1.29,-6.74,
1.327,4.04,-21.44,-1.05,2.97,1.29,-6.74,
1.328,3.24,-21.01,-1.27,2.97,1.29,-6.74,
1.329,3.24,-21.01,-1.27,2.96,1.24,-6.53,
1.329,3.24,-21.01,-1.27,2.94,1.18,-6.32,
1.329,2.49,-20.53,-1.41,2.94,1.18,-6.32,
1.338,2.49,-20.53,-1.41,2.91,1.12,-6.10,
1.339,1.81,-20.07,-1.54,2.91,1.12,-6.10,
1.339,1.81,-20.07,-1.54,2.88,1.03,-5.88,
1.339,1.27,-19.61,-1.61,2.88,1.03,-5.88,
1.342,0.75,-19.12,-1.59,2.88,1.03,-5.88,
1.343,0.75,-19.12,-1.59,2.84,0.94,-5.65,
1.378,0.75,-19.12,-1.59,2.80,0.82,-5.42,
1.379,0.23,-18.60,-1.62,2.80,0.82,-5.42,
1.379,-0.33,-18.01,-1.60,2.80,0.82,-5.42,
1.379,-0.33,-18.01,-1.60,2.76,0.69,-5.18,
1.38,-0.33,-18.01,-1.60,2.72,0.56,-4.95,
1.38,-0.81,-17.40,-1.60,2.72,0.56,-4.95,
1.38,-1.30,-16.79,-1.56,2.72,0.56,-4.95,
1.381,-1.30,-16.79,-1.56,2.67,0.43,-4.72,
1.381,-1.30,-16.79,-1.56,2.63,0.29,-4.51,
1.382,-1.70,-16.16,-1.52,2.63,0.29,-4.51,
1.382,-1.70,-16.16,-1.52,2.58,0.16,-4.32,
1.382,-2.01,-15.58,-1.40,2.58,0.16,-4.32,
1.383,-2.27,-15.03,-1.24,2.58,0.16,-4.32,
1.383,-2.27,-15.03,-1.24,2.54,0.02,-4.14,
1.384,-2.27,-15.03,-1.24,2.50,-0.12,-3.97,
1.384,-2.49,-14.54,-1.06,2.50,-0.12,-3.97,
1.386,-2.49,-14.54,-1.06,2.45,-0.25,-3.82,
1.386,-2.70,-14.11,-0.89,2.45,-0.25,-3.82,
1.391,-2.89,-13.68,-0.69,2.45,-0.25,-3.82,
1.391,-2.89,-13.68,-0.69,2.41,-0.38,-3.68,
1.401,-2.89,-13.68,-0.69,2.37,-0.49,-3.56,
1.403,-2.99,-13.28,-0.51,2.37,-0.49,-3.56,
1.403,-3.07,-13.01,-0.37,2.37,-0.49,-3.56,
1.403,-3.07,-13.01,-0.37,2.33,-0.59,-3.45,
1.406,-3.05,-12.80,-0.24,2.33,-0.59,-3.45,
1.406,-3.05,-12.80,-0.24,2.29,-0.68,-3.35,
1.41,-3.05,-12.65,-0.14,2.29,-0.68,-3.35,
1.411,-3.05,-12.65,-0.14,2.24,-0.75,-3.26,
1.443,-3.05,-12.65,-0.14,2.18,-0.81,-3.19,
1.444,-3.01,-12.51,-0.01,2.18,-0.81,-3.19,
1.445,-3.10,-12.34,0.07,2.18,-0.81,-3.19,
1.446,-3.10,-12.34,0.07,2.12,-0.87,-3.14,
1.446,-3.10,-12.34,0.07,2.05,-0.90,-3.09,
1.447,-3.24,-12.21,0.20,2.05,-0.90,-3.09,
1.447,-3.24,-12.21,0.20,1.98,-0.91,-3.06,
1.448,-3.36,-12.04,0.31,1.98,-0.91,-3.06,
1.448,-3.36,-12.04,0.31,1.90,-0.91,-3.02,
1.449,-3.54,-11.84,0.49,1.90,-0.91,-3.02,
1.449,-3.76,-11.66,0.67,1.90,-0.91,-3.02,
1.45,-3.76,-11.66,0.67,1.82,-0.89,-2.99,
1.45,-4.03,-11.52,0.86,1.82,-0.89,-2.99,
1.451,-4.03,-11.52,0.86,1.75,-0.86,-2.96,
1.451,-4.31,-11.37,1.11,1.75,-0.86,-2.96,
1.452,-4.31,-11.37,1.11,1.68,-0.81,-2.93,
1.454,-4.55,-11.26,1.25,1.68,-0.81,-2.93,
1.455,-4.55,-11.26,1.25,1.62,-0.76,-2.91,
1.46,-4.81,-11.13,1.39,1.62,-0.76,-2.91,
1.46,-4.81,-11.13,1.39,1.56,-0.71,-2.87,
1.464,-5.08,-11.11,1.55,1.56,-0.71,-2.87,
1.465,-5.08,-11.11,1.55,1.51,-0.65,-2.84,
1.469,-5.08,-11.11,1.55,1.47,-0.59,-2.80,
1.47,-5.42,-11.04,1.65,1.47,-0.59,-2.80,
1.474,-5.42,-11.04,1.65,1.44,-0.54,-2.76,
1.474,-5.72,-10.99,1.73,1.44,-0.54,-2.76,
1.486,-5.72,-10.99,1.73,1.42,-0.51,-2.70,
1.487,-5.95,-10.96,1.71,1.42,-0.51,-2.70,
1.487,-5.95,-10.96,1.71,1.40,-0.49,-2.64,
1.488,-6.12,-10.98,1.62,1.40,-0.49,-2.64,
1.489,-6.12,-10.98,1.62,1.39,-0.48,-2.57,
1.489,-6.20,-11.05,1.53,1.39,-0.48,-2.57,
1.493,-6.22,-11.17,1.39,1.39,-0.48,-2.57,
1.494,-6.22,-11.17,1.39,1.36,-0.47,-2.48,
1.527,-6.22,-11.17,1.39,1.34,-0.46,-2.38,
1.528,-6.20,-11.32,1.28,1.34,-0.46,-2.38,
1.528,-6.20,-11.32,1.28,1.31,-0.45,-2.28,
1.529,-6.18,-11.48,1.17,1.31,-0.45,-2.28,
1.529,-6.18,-11.48,1.17,1.27,-0.43,-2.17,
1.53,-6.24,-11.52,1.08,1.27,-0.43,-2.17,
1.53,-6.24,-11.52,1.08,1.23,-0.42,-2.06,
1.53,-6.34,-11.52,0.96,1.23,-0.42,-2.06,
1.531,-6.34,-11.52,0.96,1.18,-0.40,-1.93,
1.531,-6.40,-11.44,0.85,1.18,-0.40,-1.93,
1.561,-6.50,-11.28,0.80,1.18,-0.40,-1.93,
1.562,-6.50,-11.28,0.80,1.13,-0.38,-1.81,
1.563,-6.65,-11.07,0.83,1.13,-0.38,-1.81,
1.563,-6.65,-11.07,0.83,1.07,-0.36,-1.69,
1.564,-6.82,-10.85,0.84,1.07,-0.36,-1.69,
1.564,-6.82,-10.85,0.84,1.00,-0.34,-1.58,
1.565,-6.82,-10.85,0.84,0.93,-0.33,-1.47,
1.565,-6.94,-10.71,0.85,0.93,-0.33,-1.47,
1.566,-6.94,-10.71,0.85,0.87,-0.34,-1.37,
1.566,-7.05,-10.55,0.87,0.87,-0.34,-1.37,
1.567,-7.04,-10.43,0.91,0.87,-0.34,-1.37,
1.567,-7.04,-10.43,0.91,0.80,-0.35,-1.27,
1.567,-7.04,-10.43,0.91,0.74,-0.38,-1.18,
1.568,-7.04,-10.36,1.00,0.74,-0.38,-1.18,
1.568,-6.93,-10.37,1.11,0.74,-0.38,-1.18,
1.569,-6.93,-10.37,1.11,0.68,-0.40,-1.08,
1.569,-6.80,-10.49,1.27,0.68,-0.40,-1.08,
1.57,-6.80,-10.49,1.27,0.62,-0.44,-0.99,
1.57,-6.70,-10.64,1.43,0.62,-0.44,-0.99,
1.57,-6.70,-10.64,1.43,0.57,-0.47,-0.90,
1.572,-6.70,-10.64,1.43,0.52,-0.49,-0.80,
1.573,-6.55,-10.80,1.58,0.52,-0.49,-0.80,
1.576,-6.55,-10.80,1.58,0.48,-0.49,-0.70,
1.577,-6.40,-10.95,1.70,0.48,-0.49,-0.70,
1.586,-6.40,-10.95,1.70,0.44,-0.48,-0.60,
1.587,-6.26,-11.11,1.77,0.44,-0.48,-0.60,
1.588,-6.08,-11.32,1.84,0.44,-0.48,-0.60,
1.588,-6.08,-11.32,1.84,0.39,-0.47,-0.49,
1.591,-6.08,-11.32,1.84,0.35,-0.44,-0.39,
1.592,-5.90,-11.51,1.88,0.35,-0.44,-0.39,
1.626,-5.81,-11.61,2.00,0.35,-0.44,-0.39,
1.627,-5.81,-11.61,2.00,0.31,-0.40,-0.28,
1.627,-5.87,-11.62,2.13,0.31,-0.40,-0.28,
1.628,-5.87,-11.62,2.13,0.26,-0.35,-0.17,
1.628,-5.92,-11.63,2.18,0.26,-0.35,-0.17,
1.628,-5.92,-11.63,2.18,0.22,-0.28,-0.06,
1.629,-5.95,-11.58,2.26,0.22,-0.28,-0.06,
1.629,-5.95,-11.58,2.26,0.19,-0.20,0.06,
1.63,-6.10,-11.56,2.30,0.19,-0.20,0.06,
1.63,-6.10,-11.56,2.30,0.15,-0.11,0.17,
1.63,-6.14,-11.60,2.33,0.15,-0.11,0.17,
1.631,-6.14,-11.60,2.33,0.12,-0.02,0.29,
1.631,-6.11,-11.71,2.34,0.12,-0.02,0.29,
1.632,-6.11,-11.71,2.34,0.09,0.05,0.40,
1.632,-6.11,-11.71,2.34,0.06,0.10,0.53,
1.633,-6.11,-11.84,2.37,0.06,0.10,0.53,
1.635,-6.11,-11.84,2.37,0.04,0.15,0.66,
1.635,-6.07,-12.00,2.34,0.04,0.15,0.66,
1.64,-6.07,-12.00,2.34,0.03,0.18,0.80,
1.64,-5.99,-12.22,2.40,0.03,0.18,0.80,
1.644,-5.99,-12.22,2.40,0.02,0.22,0.95,
1.645,-5.91,-12.36,2.39,0.02,0.22,0.95,
1.65,-5.88,-12.52,2.35,0.02,0.22,0.95,
1.65,-5.88,-12.52,2.35,0.03,0.25,1.11,
1.654,-5.83,-12.63,2.31,0.03,0.25,1.11,
1.655,-5.83,-12.63,2.31,0.04,0.29,1.28,
1.659,-5.79,-12.75,2.29,0.04,0.29,1.28,
1.66,-5.79,-12.75,2.29,0.05,0.31,1.45,
1.668,-5.79,-12.75,2.29,0.07,0.34,1.63,
1.669,-5.77,-12.85,2.18,0.07,0.34,1.63,
1.67,-5.77,-12.85,2.18,0.09,0.34,1.82,
1.67,-5.78,-12.91,2.00,0.09,0.34,1.82,
1.674,-5.78,-12.91,2.00,0.11,0.32,2.01,
1.674,-5.71,-12.96,1.79,0.11,0.32,2.01,
1.705,-5.71,-12.96,1.79,0.12,0.29,2.22,
1.706,-5.61,-13.05,1.47,0.12,0.29,2.22,
1.707,-5.47,-13.16,1.11,0.12,0.29,2.22,
1.707,-5.47,-13.16,1.11,0.13,0.24,2.42,
1.707,-5.47,-13.16,1.11,0.11,0.19,2.63,
1.708,-5.13,-13.31,0.83,0.11,0.19,2.63,
1.708,-4.70,-13.53,0.51,0.11,0.19,2.63,
1.709,-4.70,-13.53,0.51,0.09,0.12,2.83,
1.709,-4.70,-13.53,0.51,0.06,0.05,3.03,
1.709,-4.18,-13.76,0.25,0.06,0.05,3.03,
1.71,-4.18,-13.76,0.25,0.01,-0.02,3.23,
1.71,-3.58,-13.97,0.08,0.01,-0.02,3.23,
1.71,-3.58,-13.97,0.08,-0.04,-0.10,3.41,
1.711,-3.04,-14.15,-0.11,-0.04,-0.10,3.41,
1.718,-3.04,-14.15,-0.11,-0.10,-0.16,3.58,
1.719,-2.44,-14.27,-0.23,-0.10,-0.16,3.58,
1.72,-2.44,-14.27,-0.23,-0.16,-0.23,3.74,
1.72,-1.82,-14.32,-0.37,-0.16,-0.23,3.74,
1.723,-1.82,-14.32,-0.37,-0.24,-0.29,3.88,
1.723,-1.19,-14.46,-0.55,-0.24,-0.29,3.88,
1.727,-0.60,-14.60,-0.77,-0.24,-0.29,3.88,
1.728,-0.60,-14.60,-0.77,-0.32,-0.36,4.01,
1.733,-0.60,-14.60,-0.77,-0.42,-0.41,4.13,
1.734,-0.06,-14.78,-0.92,-0.42,-0.41,4.13,
1.737,0.42,-15.03,-1.04,-0.42,-0.41,4.13,
1.737,0.42,-15.03,-1.04,-0.53,-0.45,4.24,
1.742,0.77,-15.32,-1.19,-0.53,-0.45,4.24,
1.743,0.77,-15.32,-1.19,-0.66,-0.48,4.36,
1.747,0.77,-15.32,-1.19,-0.82,-0.50,4.48,
1.749,1.04,-15.64,-1.30,-0.82,-0.50,4.48,
1.753,1.30,-15.87,-1.41,-0.82,-0.50,4.48,
1.754,1.30,-15.87,-1.41,-0.99,-0.49,4.62,
1.757,1.51,-16.09,-1.45,-0.99,-0.49,4.62,
1.758,1.51,-16.09,-1.45,-1.19,-0.48,4.78,
1.775,1.70,-16.23,-1.46,-1.19,-0.48,4.78,
1.776,1.70,-16.23,-1.46,-1.41,-0.45,4.96,
1.824,1.80,-16.40,-1.44,-1.41,-0.45,4.96,
1.825,1.80,-16.40,-1.44,-1.65,-0.40,5.16,
1.826,1.94,-16.57,-1.30,-1.65,-0.40,5.16,
1.826,1.94,-16.57,-1.30,-1.92,-0.34,5.38,
1.827,1.94,-16.57,-1.30,-2.20,-0.28,5.62,
1.827,2.16,-16.74,-1.07,-2.20,-0.28,5.62,
1.828,2.16,-16.74,-1.07,-2.48,-0.19,5.88,
1.828,2.58,-16.89,-0.80,-2.48,-0.19,5.88,
1.829,2.58,-16.89,-0.80,-2.76,-0.11,6.14,
1.829,3.16,-17.10,-0.47,-2.76,-0.11,6.14,
1.83,3.90,-17.31,-0.01,-2.76,-0.11,6.14,
1.83,3.90,-17.31,-0.01,-3.03,-0.03,6.41,
1.831,4.69,-17.56,0.54,-3.03,-0.03,6.41,
1.831,4.69,-17.56,0.54,-3.28,0.05,6.67,
1.832,4.69,-17.56,0.54,-3.50,0.11,6.92,
1.832,5.48,-17.83,1.13,-3.50,0.11,6.92,
1.833,5.48,-17.83,1.13,-3.69,0.17,7.17,
1.833,6.32,-18.13,1.82,-3.69,0.17,7.17,
1.834,7.09,-18.38,2.57,-3.69,0.17,7.17,
1.834,7.09,-18.38,2.57,-3.83,0.24,7.42,
1.835,7.09,-18.38,2.57,-3.92,0.31,7.66,
1.835,7.85,-18.54,3.28,-3.92,0.31,7.66,
1.836,8.57,-18.62,4.00,-3.92,0.31,7.66,
1.836,8.57,-18.62,4.00,-3.98,0.41,7.89,
1.837,8.57,-18.62,4.00,-3.99,0.51,8.11,
1.837,9.29,-18.72,4.63,-3.99,0.51,8.11,
1.838,9.99,-18.82,5.28,-3.99,0.51,8.11,
1.838,9.99,-18.82,5.28,-3.97,0.60,8.31,
1.839,10.63,-18.93,5.83,-3.97,0.60,8.31,
1.839,10.63,-18.93,5.83,-3.90,0.69,8.52,
1.84,11.37,-18.92,6.41,-3.90,0.69,8.52,
1.84,11.37,-18.92,6.41,-3.79,0.77,8.74,
1.849,12.21,-18.71,7.00,-3.79,0.77,8.74,
1.85,12.21,-18.71,7.00,-3.64,0.87,8.94,
1.85,12.21,-18.71,7.00,-3.45,0.96,9.10,
1.851,13.10,-18.31,7.52,-3.45,0.96,9.10,
1.886,13.21,-17.72,7.93,-3.45,0.96,9.10,
1.887,13.21,-17.72,7.93,-3.23,1.02,9.23,
1.887,13.21,-17.72,7.93,-2.97,1.06,9.39,
1.887,14.08,-17.24,8.38,-2.97,1.06,9.39,
1.888,14.08,-17.24,8.38,-2.67,1.13,9.49,
1.888,15.32,-16.56,8.78,-2.67,1.13,9.49,
1.889,15.32,-16.56,8.78,-2.34,1.18,9.48,
1.889,16.86,-15.76,8.96,-2.34,1.18,9.48,
1.889,16.86,-15.76,8.96,-1.98,1.18,9.37,
1.89,18.39,-15.04,8.80,-1.98,1.18,9.37,
1.89,18.39,-15.04,8.80,-1.61,1.12,9.18,
1.891,19.31,-13.97,8.64,-1.61,1.12,9.18,
1.891,19.31,-13.97,8.64,-1.23,1.02,8.93,
1.892,19.37,-12.71,9.62,-1.23,1.02,8.93,
1.892,19.37,-12.71,9.62,-0.80,0.92,8.68,
1.892,20.01,-11.81,9.42,-0.80,0.92,8.68,
1.894,20.01,-11.81,9.42,-0.37,0.78,8.40,
1.894,20.85,-11.24,8.15,-0.37,0.78,8.40,
1.899,20.85,-11.24,8.15,0.01,0.60,8.09,
1.899,21.12,-10.52,7.35,0.01,0.60,8.09,
1.903,21.12,-10.52,7.35,0.33,0.45,7.77,
1.904,20.98,-9.74,6.97,0.33,0.45,7.77,
1.908,20.98,-9.74,6.97,0.63,0.31,7.42,
1.909,21.06,-9.03,6.41,0.63,0.31,7.42,
1.921,21.22,-8.63,5.66,0.63,0.31,7.42,
1.922,21.22,-8.63,5.66,0.88,0.14,7.08,
1.922,20.90,-8.10,4.87,0.88,0.14,7.08,
1.923,20.90,-8.10,4.87,1.09,-0.04,6.74,
1.923,20.90,-8.10,4.87,1.25,-0.17,6.40,
1.923,19.70,-7.37,4.58,1.25,-0.17,6.40,
1.927,19.70,-7.37,4.58,1.37,-0.22,6.10,
1.928,18.28,-6.57,4.62,1.37,-0.22,6.10,
1.959,17.18,-5.97,4.31,1.37,-0.22,6.10,
1.959,17.18,-5.97,4.31,1.45,-0.22,5.84,
1.96,17.18,-5.97,4.31,1.48,-0.20,5.63,
1.96,16.31,-5.51,3.84,1.48,-0.20,5.63,
1.961,16.31,-5.51,3.84,1.48,-0.14,5.47,
1.961,15.53,-5.18,3.42,1.48,-0.14,5.47,
1.961,15.53,-5.18,3.42,1.42,-0.01,5.33,
1.962,14.83,-5.05,3.06,1.42,-0.01,5.33,
1.962,14.83,-5.05,3.06,1.31,0.19,5.23,
1.962,14.27,-5.05,2.77,1.31,0.19,5.23,
1.963,13.96,-4.98,2.34,1.31,0.19,5.23,
1.963,13.96,-4.98,2.34,1.17,0.43,5.16,
1.964,13.49,-4.67,2.30,1.17,0.43,5.16,
1.964,13.49,-4.67,2.30,0.99,0.67,5.12,
1.968,12.89,-4.07,2.72,0.99,0.67,5.12,
1.969,12.89,-4.07,2.72,0.79,0.92,5.08,
1.972,12.39,-3.64,2.97,0.79,0.92,5.08,
1.972,12.39,-3.64,2.97,0.61,1.15,5.06,
1.976,12.09,-3.11,3.04,0.61,1.15,5.06,
1.977,12.09,-3.11,3.04,0.44,1.34,5.07,
1.982,11.87,-2.29,0.04,0.44,1.34,5.07,
1.983,11.87,-2.29,0.04,0.29,1.47,5.08,
1.986,11.87,-2.29,0.04,0.10,1.34,5.06,
1.987,12.60,-1.97,-0.31,0.10,1.34,5.06,
1.991,12.60,-1.97,-0.31,-0.09,1.18,5.00,
1.991,13.09,-1.98,2.82,-0.09,1.18,5.00,
2.004,13.09,-1.98,2.82,-0.15,1.29,4.92,
2.006,12.87,-1.60,6.43,-0.15,1.29,4.92,
2.006,12.82,-0.68,9.20,-0.15,1.29,4.92,
2.007,12.82,-0.68,9.20,-0.10,1.56,4.83,
2.008,12.82,-0.68,9.20,0.03,1.85,4.75,
2.008,12.87,0.42,6.73,0.03,1.85,4.75,
2.05,13.71,0.96,3.80,0.03,1.85,4.75,
2.051,13.71,0.96,3.80,0.15,1.86,4.68,
2.052,15.01,1.28,2.12,0.15,1.86,4.68,
2.052,15.01,1.28,2.12,0.24,1.72,4.56,
2.053,15.01,1.28,2.12,0.32,1.54,4.34,
2.053,16.14,1.74,1.48,0.32,1.54,4.34,
2.054,16.14,1.74,1.48,0.37,1.35,4.04,
2.054,16.54,2.47,1.32,0.37,1.35,4.04,
2.055,16.54,2.47,1.32,0.39,1.16,3.71,
2.055,16.12,3.17,0.99,0.39,1.16,3.71,
2.056,15.31,3.81,0.35,0.39,1.16,3.71,
2.056,15.31,3.81,0.35,0.39,1.00,3.41,
2.057,14.42,4.34,-0.35,0.39,1.00,3.41,
2.057,14.42,4.34,-0.35,0.38,0.87,3.13,
2.058,14.42,4.34,-0.35,0.33,0.78,2.89,
2.058,13.61,4.79,-1.03,0.33,0.78,2.89,
2.058,13.61,4.79,-1.03,0.26,0.69,2.68,
2.059,12.89,5.18,-1.47,0.26,0.69,2.68,
2.059,12.89,5.18,-1.47,0.15,0.64,2.49,
2.06,12.37,5.39,-1.73,0.15,0.64,2.49,
2.06,12.37,5.39,-1.73,0.02,0.59,2.33,
2.061,12.11,5.54,-1.86,0.02,0.59,2.33,
2.064,12.11,5.54,-1.86,-0.14,0.56,2.19,
2.066,12.05,5.53,-2.00,-0.14,0.56,2.19,
2.069,11.93,5.44,-2.14,-0.14,0.56,2.19,
2.07,11.93,5.44,-2.14,-0.31,0.57,2.08,
2.074,11.93,5.44,-2.14,-0.49,0.61,2.00,
2.074,11.77,5.37,-2.28,-0.49,0.61,2.00,
2.079,11.58,5.41,-2.43,-0.49,0.61,2.00,
2.079,11.58,5.41,-2.43,-0.69,0.65,1.93,
2.084,11.39,5.35,-2.35,-0.69,0.65,1.93,
2.084,11.39,5.35,-2.35,-0.91,0.70,1.87,
2.089,11.24,5.25,-2.03,-0.91,0.70,1.87,
2.09,11.24,5.25,-2.03,-1.12,0.76,1.83,
2.094,11.19,5.16,-1.46,-1.12,0.76,1.83,
2.094,11.19,5.16,-1.46,-1.32,0.83,1.80,
2.107,11.19,5.16,-1.46,-1.49,0.88,1.77,
2.108,11.16,5.06,-0.70,-1.49,0.88,1.77,
2.109,11.16,5.06,-0.70,-1.63,0.93,1.75,
2.109,11.21,5.04,0.13,-1.63,0.93,1.75,
2.11,11.19,5.10,0.97,-1.63,0.93,1.75,
2.11,11.19,5.10,0.97,-1.72,0.97,1.73,
2.113,11.19,5.10,0.97,-1.76,0.98,1.71,
2.113,11.23,5.26,1.77,-1.76,0.98,1.71,
2.146,11.23,5.26,1.77,-1.76,0.97,1.69,
2.147,11.36,5.46,2.52,-1.76,0.97,1.69,
2.147,11.55,5.58,3.19,-1.76,0.97,1.69,
2.148,11.55,5.58,3.19,-1.72,0.94,1.66,
2.148,11.55,5.58,3.19,-1.64,0.89,1.63,
2.149,11.32,5.47,4.95,-1.64,0.89,1.63,
2.149,11.32,5.47,4.95,-1.47,0.91,1.62,
2.15,11.10,5.68,7.11,-1.47,0.91,1.62,
2.15,11.55,5.88,6.12,-1.47,0.91,1.62,
2.15,11.55,5.88,6.12,-1.22,0.93,1.61,
2.151,11.55,5.88,6.12,-1.02,0.84,1.59,
2.151,12.49,6.01,4.49,-1.02,0.84,1.59,
2.152,12.92,6.32,3.61,-1.02,0.84,1.59,
2.152,12.92,6.32,3.61,-0.88,0.72,1.52,
2.153,12.92,6.32,3.61,-0.79,0.66,1.45,
2.153,12.64,6.42,3.35,-0.79,0.66,1.45,
2.157,12.64,6.42,3.35,-0.70,0.58,1.40,
2.157,10.43,4.84,3.42,-0.70,0.58,1.40,
2.162,10.43,4.84,3.42,-0.58,0.34,1.46,
2.162,12.10,6.57,4.30,-0.58,0.34,1.46,
2.167,12.72,7.60,4.44,-0.58,0.34,1.46,
2.167,12.72,7.60,4.44,-0.48,0.26,1.47,
2.171,12.72,7.60,4.44,-0.42,0.27,1.41,
2.172,13.38,8.07,4.60,-0.42,0.27,1.41,
2.176,13.38,8.07,4.60,-0.33,0.21,1.32,
2.177,13.89,8.05,4.55,-0.33,0.21,1.32,
2.182,13.89,8.05,4.55,-0.21,0.17,1.21,
2.183,13.80,7.83,4.15,-0.21,0.17,1.21,
2.186,13.89,7.72,4.09,-0.21,0.17,1.21,
2.187,13.89,7.72,4.09,-0.11,0.16,1.10,
2.191,14.24,7.87,4.24,-0.11,0.16,1.10,
2.192,14.24,7.87,4.24,-0.01,0.12,1.00,
2.196,14.70,8.05,4.27,-0.01,0.12,1.00,
2.197,14.70,8.05,4.27,0.09,0.07,0.88,
2.205,14.70,8.05,4.27,0.19,0.00,0.75,
2.206,15.21,8.19,4.14,0.19,0.00,0.75,
2.206,15.21,8.19,4.14,0.29,-0.06,0.61,
2.207,15.53,8.22,3.94,0.29,-0.06,0.61,
2.21,15.53,8.22,3.94,0.39,-0.11,0.44,
2.211,15.73,8.27,3.84,0.39,-0.11,0.44,
2.243,15.73,8.27,3.84,0.50,-0.14,0.26,
2.244,16.07,8.36,3.76,0.50,-0.14,0.26,
2.244,16.07,8.36,3.76,0.60,-0.20,0.07,
2.245,16.32,8.44,3.49,0.60,-0.20,0.07,
2.245,16.32,8.44,3.49,0.69,-0.29,-0.14,
2.245,16.22,8.42,3.23,0.69,-0.29,-0.14,
2.246,16.22,8.42,3.23,0.79,-0.40,-0.34,
2.246,15.72,8.18,3.21,0.79,-0.40,-0.34,
2.247,15.45,7.89,3.17,0.79,-0.40,-0.34,
2.247,15.45,7.89,3.17,0.89,-0.51,-0.53,
2.248,15.45,7.89,3.17,0.98,-0.62,-0.68,
2.248,15.38,7.48,2.78,0.98,-0.62,-0.68,
2.249,15.38,7.48,2.78,1.07,-0.72,-0.81,
2.249,15.28,7.12,2.48,1.07,-0.72,-0.81,
2.25,15.31,6.94,2.15,1.07,-0.72,-0.81,
2.25,15.31,6.94,2.15,1.13,-0.78,-0.93,
2.278,15.31,6.94,2.15,1.16,-0.81,-1.06,
2.278,15.43,6.84,1.86,1.16,-0.81,-1.06,
2.279,15.43,6.84,1.86,1.17,-0.84,-1.20,
2.279,15.60,6.80,1.58,1.17,-0.84,-1.20,
2.28,15.60,6.80,1.58,1.15,-0.87,-1.35,
2.28,15.60,6.75,1.43,1.15,-0.87,-1.35,
2.281,15.60,6.75,1.43,1.11,-0.89,-1.51,
2.281,15.37,6.58,1.33,1.11,-0.89,-1.51,
2.282,14.99,6.27,1.34,1.11,-0.89,-1.51,
2.282,14.99,6.27,1.34,1.06,-0.90,-1.66,
2.283,14.65,6.04,1.35,1.06,-0.90,-1.66,
2.283,14.65,6.04,1.35,1.03,-0.95,-1.81,
2.284,14.65,6.04,1.35,1.01,-1.02,-1.93,
2.284,14.46,5.79,1.30,1.01,-1.02,-1.93,
2.288,14.46,5.79,1.30,1.00,-1.11,-2.06,
2.29,14.37,5.57,1.23,1.00,-1.11,-2.06,
2.294,14.41,5.33,1.20,1.00,-1.11,-2.06,
2.294,14.41,5.33,1.20,0.97,-1.18,-2.20,
2.305,14.41,5.33,1.20,0.93,-1.25,-2.34,
2.306,14.42,5.06,1.28,0.93,-1.25,-2.34,
2.306,14.35,4.69,1.30,0.93,-1.25,-2.34,
2.307,14.35,4.69,1.30,0.88,-1.31,-2.48,
2.308,14.35,4.69,1.30,0.83,-1.38,-2.62,
2.308,14.33,4.23,1.25,0.83,-1.38,-2.62,
2.313,14.33,3.73,1.33,0.83,-1.38,-2.62,
2.313,14.33,3.73,1.33,0.78,-1.46,-2.76,
2.337,14.36,3.10,1.39,0.78,-1.46,-2.76,
2.337,14.36,3.10,1.39,0.73,-1.55,-2.91,
2.338,14.36,3.10,1.39,0.68,-1.63,-3.06,
2.338,14.47,2.54,1.44,0.68,-1.63,-3.06,
2.339,14.47,2.54,1.44,0.64,-1.70,-3.21,
2.339,14.44,1.93,1.59,0.64,-1.70,-3.21,
2.339,14.44,1.93,1.59,0.60,-1.76,-3.35,
2.34,14.46,1.36,1.83,0.60,-1.76,-3.35,
2.34,14.46,1.36,1.83,0.57,-1.82,-3.49,
2.34,14.47,0.76,2.14,0.57,-1.82,-3.49,
2.345,14.47,0.76,2.14,0.57,-1.89,-3.62,
2.346,14.60,0.09,2.17,0.57,-1.89,-3.62,
2.356,14.68,-0.60,2.10,0.57,-1.89,-3.62,
2.356,14.68,-0.60,2.10,0.57,-1.95,-3.74,
2.357,14.76,-1.29,2.08,0.57,-1.95,-3.74,
2.357,14.76,-1.29,2.08,0.58,-1.99,-3.86,
2.357,14.85,-1.91,1.76,0.58,-1.99,-3.86,
2.358,14.85,-1.91,1.76,0.57,-2.02,-3.96,
2.362,14.89,-2.41,1.65,0.57,-2.02,-3.96,
2.362,14.89,-2.41,1.65,0.55,-2.04,-4.05,
2.374,14.89,-2.41,1.65,0.52,-2.06,-4.15,
2.375,14.86,-2.92,1.93,0.52,-2.06,-4.15,
2.376,14.86,-3.38,2.01,0.52,-2.06,-4.15,
2.376,14.86,-3.38,2.01,0.49,-2.09,-4.22,
2.377,14.84,-3.76,2.17,0.49,-2.09,-4.22,
2.378,14.84,-3.76,2.17,0.47,-2.13,-4.29,
2.39,14.84,-3.76,2.17,0.46,-2.17,-4.35,
2.391,14.84,-4.13,2.44,0.46,-2.17,-4.35,
2.392,14.84,-4.13,2.44,0.46,-2.21,-4.41,
2.392,14.92,-4.48,2.67,0.46,-2.21,-4.41,
2.393,14.95,-4.75,2.91,0.46,-2.21,-4.41,
2.393,14.95,-4.75,2.91,0.46,-2.26,-4.46,
2.395,15.00,-5.00,3.03,0.46,-2.26,-4.46,
2.396,15.00,-5.00,3.03,0.47,-2.30,-4.54,
2.408,14.96,-5.26,3.12,0.47,-2.30,-4.54,
2.409,14.96,-5.26,3.12,0.46,-2.35,-4.61,
2.41,14.93,-5.55,3.14,0.46,-2.35,-4.61,
2.41,14.93,-5.55,3.14,0.46,-2.39,-4.70,
2.411,14.97,-5.83,3.14,0.46,-2.39,-4.70,
2.412,14.97,-5.83,3.14,0.44,-2.45,-4.79,
2.427,14.99,-6.14,3.15,0.44,-2.45,-4.79,
2.428,14.99,-6.14,3.15,0.41,-2.50,-4.90,
2.428,14.99,-6.14,3.15,0.37,-2.53,-5.02,
2.429,15.09,-6.50,3.21,0.37,-2.53,-5.02,
2.43,15.09,-6.50,3.21,0.32,-2.57,-5.15,
2.431,15.23,-7.03,3.13,0.32,-2.57,-5.15,
2.431,15.23,-7.03,3.13,0.26,-2.61,-5.29,
2.433,15.35,-7.66,3.13,0.26,-2.61,-5.29,
2.485,15.35,-7.66,3.13,0.21,-2.65,-5.43,
2.486,15.56,-8.53,3.36,0.21,-2.65,-5.43,
2.487,15.56,-8.53,3.36,0.15,-2.69,-5.59,
2.488,15.74,-9.46,3.54,0.15,-2.69,-5.59,
2.488,15.74,-9.46,3.54,0.10,-2.72,-5.74,
2.489,15.81,-10.29,3.51,0.10,-2.72,-5.74,
2.489,15.81,-10.29,3.51,0.03,-2.75,-5.90,
2.49,15.76,-11.01,3.52,0.03,-2.75,-5.90,
2.491,15.76,-11.01,3.52,-0.03,-2.74,-6.05,
2.491,15.74,-11.71,3.74,-0.03,-2.74,-6.05,
2.492,15.74,-11.71,3.74,-0.10,-2.74,-6.21,
2.492,15.64,-12.43,3.89,-0.10,-2.74,-6.21,
2.493,15.52,-13.19,3.98,-0.10,-2.74,-6.21,
2.494,15.52,-13.19,3.98,-0.15,-2.72,-6.36,
2.494,15.35,-13.98,4.06,-0.15,-2.72,-6.36,
2.495,15.35,-13.98,4.06,-0.20,-2.69,-6.50,
2.495,15.10,-14.68,4.06,-0.20,-2.69,-6.50,
2.496,15.10,-14.68,4.06,-0.25,-2.65,-6.63,
2.496,14.80,-15.30,3.90,-0.25,-2.65,-6.63,
2.496,14.80,-15.30,3.90,-0.31,-2.61,-6.75,
2.497,14.41,-15.82,3.91,-0.31,-2.61,-6.75,
2.498,14.41,-15.82,3.91,-0.38,-2.55,-6.86,
2.498,14.41,-15.82,3.91,-0.45,-2.49,-6.96,
2.499,13.93,-16.29,3.84,-0.45,-2.49,-6.96,
2.499,13.93,-16.29,3.84,-0.52,-2.42,-7.04,
2.5,13.53,-16.83,3.80,-0.52,-2.42,-7.04,
2.533,13.53,-16.83,3.80,-0.59,-2.32,-7.11,
2.533,13.25,-17.42,3.91,-0.59,-2.32,-7.11,
2.534,13.25,-17.42,3.91,-0.65,-2.21,-7.16,
2.534,12.99,-17.92,4.09,-0.65,-2.21,-7.16,
2.535,12.66,-18.31,4.25,-0.65,-2.21,-7.16,
2.535,12.66,-18.31,4.25,-0.69,-2.08,-7.21,
2.536,12.66,-18.31,4.25,-0.70,-1.95,-7.24,
2.536,12.21,-18.67,4.24,-0.70,-1.95,-7.24,
2.537,12.21,-18.67,4.24,-0.70,-1.81,-7.26,
2.537,11.75,-18.95,4.17,-0.70,-1.81,-7.26,
2.538,11.13,-19.14,4.03,-0.70,-1.81,-7.26,
2.539,11.13,-19.14,4.03,-0.70,-1.66,-7.28,
2.539,10.47,-19.31,4.00,-0.70,-1.66,-7.28,
2.54,10.47,-19.31,4.00,-0.70,-1.49,-7.27,
2.54,10.47,-19.31,4.00,-0.68,-1.31,-7.26,
2.541,9.85,-19.35,4.03,-0.68,-1.31,-7.26,
2.541,9.26,-19.34,3.99,-0.68,-1.31,-7.26,
2.541,9.26,-19.34,3.99,-0.66,-1.13,-7.23,
2.542,8.66,-19.36,3.83,-0.66,-1.13,-7.23,
2.542,8.66,-19.36,3.83,-0.63,-0.96,-7.18,
2.551,8.08,-19.36,3.76,-0.63,-0.96,-7.18,
2.552,8.08,-19.36,3.76,-0.60,-0.77,-7.13,
2.553,8.08,-19.36,3.76,-0.56,-0.59,-7.07,
2.553,7.45,-19.26,3.66,-0.56,-0.59,-7.07,
2.588,6.79,-19.12,3.59,-0.56,-0.59,-7.07,
2.589,6.79,-19.12,3.59,-0.51,-0.41,-6.99,
2.59,6.79,-19.12,3.59,-0.45,-0.23,-6.91,
2.59,6.20,-19.06,3.47,-0.45,-0.23,-6.91,
2.591,6.20,-19.06,3.47,-0.40,-0.07,-6.81,
2.591,5.67,-19.01,3.30,-0.40,-0.07,-6.81,
2.591,5.67,-19.01,3.30,-0.33,0.08,-6.70,
2.592,5.27,-19.15,3.06,-0.33,0.08,-6.70,
2.592,5.27,-19.15,3.06,-0.27,0.21,-6.57,
2.592,4.84,-19.31,2.88,-0.27,0.21,-6.57,
2.593,4.84,-19.31,2.88,-0.21,0.34,-6.42,
2.593,4.41,-19.33,2.73,-0.21,0.34,-6.42,
2.594,4.41,-19.33,2.73,-0.15,0.47,-6.25,
2.594,3.81,-19.18,2.59,-0.15,0.47,-6.25,
2.594,3.02,-18.78,2.58,-0.15,0.47,-6.25,
2.595,3.02,-18.78,2.58,-0.10,0.59,-6.08,
2.596,2.26,-18.23,2.58,-0.10,0.59,-6.08,
2.596,2.26,-18.23,2.58,-0.05,0.70,-5.89,
2.605,1.54,-17.65,2.62,-0.05,0.70,-5.89,
2.606,1.54,-17.65,2.62,0.01,0.81,-5.71,
2.606,0.90,-17.11,2.67,0.01,0.81,-5.71,
2.607,0.90,-17.11,2.67,0.07,0.89,-5.52,
2.61,0.90,-17.11,2.67,0.13,0.95,-5.34,
2.611,0.36,-16.75,2.68,0.13,0.95,-5.34,
2.639,0.36,-16.75,2.68,0.20,0.98,-5.15,
2.64,-0.06,-16.33,2.67,0.20,0.98,-5.15,
2.64,-0.06,-16.33,2.67,0.27,1.00,-4.96,
2.641,-0.41,-15.98,2.62,0.27,1.00,-4.96,
2.641,-0.41,-15.98,2.62,0.33,0.99,-4.78,
2.641,-0.71,-15.63,2.50,0.33,0.99,-4.78,
2.642,-0.71,-15.63,2.50,0.39,0.98,-4.61,
2.642,-0.99,-15.22,2.39,0.39,0.98,-4.61,
2.643,-0.99,-15.22,2.39,0.44,0.96,-4.44,
2.643,-1.33,-14.88,2.30,0.44,0.96,-4.44,
2.643,-1.61,-14.53,2.28,0.44,0.96,-4.44,
2.644,-1.61,-14.53,2.28,0.49,0.93,-4.29,
2.644,-1.81,-14.18,2.32,0.49,0.93,-4.29,
2.644,-1.81,-14.18,2.32,0.53,0.88,-4.14,
2.649,-1.81,-14.18,2.32,0.57,0.83,-4.01,
2.65,-1.89,-13.88,2.38,0.57,0.83,-4.01,
2.654,-1.89,-13.88,2.38,0.62,0.75,-3.90,
2.655,-2.01,-13.56,2.46,0.62,0.75,-3.90,
2.659,-2.01,-13.56,2.46,0.68,0.67,-3.79,
2.659,-2.15,-13.38,2.60,0.68,0.67,-3.79,
2.664,-2.15,-13.38,2.60,0.75,0.58,-3.70,
2.664,-2.23,-13.17,2.67,0.75,0.58,-3.70,
2.676,-2.23,-13.17,2.67,0.83,0.48,-3.61,
2.678,-2.31,-12.97,2.74,0.83,0.48,-3.61,
2.679,-2.31,-12.97,2.74,0.91,0.37,-3.53,
2.68,-2.32,-12.75,2.77,0.91,0.37,-3.53,
2.681,-2.32,-12.75,2.77,0.99,0.25,-3.46,
2.683,-2.23,-12.69,2.70,0.99,0.25,-3.46,
2.685,-2.23,-12.71,2.71,0.99,0.25,-3.46,
2.686,-2.23,-12.71,2.71,1.08,0.13,-3.40,
2.728,-2.24,-12.76,2.69,1.08,0.13,-3.40,
2.729,-2.24,-12.76,2.69,1.15,0.03,-3.34,
2.729,-2.24,-12.76,2.69,1.22,-0.06,-3.28,
2.73,-2.29,-12.78,2.71,1.22,-0.06,-3.28,
2.73,-2.29,-12.78,2.71,1.29,-0.16,-3.23,
2.731,-2.41,-12.71,2.75,1.29,-0.16,-3.23,
2.731,-2.54,-12.60,2.77,1.29,-0.16,-3.23,
2.731,-2.54,-12.60,2.77,1.36,-0.24,-3.17,
2.732,-2.54,-12.60,2.77,1.42,-0.32,-3.12,
2.732,-2.72,-12.39,2.79,1.42,-0.32,-3.12,
2.733,-2.72,-12.39,2.79,1.48,-0.39,-3.07,
2.733,-2.91,-12.28,2.77,1.48,-0.39,-3.07,
2.734,-2.91,-12.28,2.77,1.54,-0.46,-3.02,
2.734,-3.07,-12.13,2.75,1.54,-0.46,-3.02,
2.735,-3.07,-12.13,2.75,1.60,-0.53,-2.96,
2.736,-3.20,-12.00,2.65,1.60,-0.53,-2.96,
2.736,-3.32,-11.95,2.44,1.60,-0.53,-2.96,
2.737,-3.32,-11.95,2.44,1.63,-0.59,-2.91,
2.737,-3.42,-11.87,2.19,1.63,-0.59,-2.91,
2.738,-3.42,-11.87,2.19,1.65,-0.65,-2.87,
2.738,-3.42,-11.87,2.19,1.66,-0.69,-2.83,
2.738,-3.51,-11.83,1.92,1.66,-0.69,-2.83,
2.771,-3.51,-11.83,1.92,1.64,-0.72,-2.78,
2.772,-3.60,-11.87,1.62,1.64,-0.72,-2.78,
2.773,-3.60,-11.87,1.62,1.59,-0.74,-2.74,
2.773,-3.61,-11.87,1.40,1.59,-0.74,-2.74,
2.773,-3.69,-11.93,1.24,1.59,-0.74,-2.74,
2.774,-3.69,-11.93,1.24,1.52,-0.75,-2.70,
2.774,-3.87,-11.91,1.10,1.52,-0.75,-2.70,
2.775,-3.87,-11.91,1.10,1.44,-0.74,-2.66,
2.775,-3.87,-11.91,1.10,1.34,-0.70,-2.62,
2.776,-4.05,-11.92,1.00,1.34,-0.70,-2.62,
2.776,-4.05,-11.92,1.00,1.24,-0.64,-2.57,
2.777,-4.26,-11.86,1.03,1.24,-0.64,-2.57,
2.777,-4.47,-11.87,1.00,1.24,-0.64,-2.57,
2.778,-4.47,-11.87,1.00,1.13,-0.58,-2.52,
2.778,-4.66,-11.94,1.04,1.13,-0.58,-2.52,
2.779,-4.66,-11.94,1.04,1.01,-0.51,-2.46,
2.781,-4.89,-12.03,1.08,1.01,-0.51,-2.46,
2.782,-4.89,-12.03,1.08,0.90,-0.44,-2.39,
2.794,-4.89,-12.03,1.08,0.80,-0.38,-2.31,
2.795,-5.16,-12.16,1.07,0.80,-0.38,-2.31,
2.795,-5.44,-12.41,1.10,0.80,-0.38,-2.31,
2.796,-5.44,-12.41,1.10,0.69,-0.33,-2.21,
2.796,-5.71,-12.55,1.12,0.69,-0.33,-2.21,
2.797,-5.71,-12.55,1.12,0.60,-0.28,-2.10,
2.834,-5.95,-12.70,1.09,0.60,-0.28,-2.10,
2.835,-5.95,-12.70,1.09,0.52,-0.24,-1.98,
2.835,-5.95,-12.70,1.09,0.44,-0.21,-1.85,
2.836,-6.18,-12.80,1.14,0.44,-0.21,-1.85,
2.836,-6.18,-12.80,1.14,0.37,-0.19,-1.70,
2.836,-6.41,-12.86,1.17,0.37,-0.19,-1.70,
2.837,-6.60,-12.87,1.26,0.37,-0.19,-1.70,
2.837,-6.60,-12.87,1.26,0.30,-0.19,-1.55,
2.838,-6.76,-12.90,1.39,0.30,-0.19,-1.55,
2.838,-6.76,-12.90,1.39,0.24,-0.19,-1.39,
2.838,-6.89,-12.83,1.46,0.24,-0.19,-1.39,
2.839,-6.89,-12.83,1.46,0.19,-0.20,-1.23,
2.839,-7.01,-12.82,1.63,0.19,-0.20,-1.23,
2.84,-7.01,-12.82,1.63,0.15,-0.21,-1.07,
2.84,-7.01,-12.82,1.63,0.11,-0.22,-0.90,
2.841,-7.01,-12.82,1.79,0.11,-0.22,-0.90,
2.841,-7.09,-12.83,1.97,0.11,-0.22,-0.90,
2.841,-7.09,-12.83,1.97,0.09,-0.23,-0.75,
2.844,-7.12,-12.87,2.14,0.09,-0.23,-0.75,
2.844,-7.12,-12.87,2.14,0.08,-0.25,-0.59,
2.85,-7.12,-12.87,2.14,0.08,-0.27,-0.44,
2.851,-7.19,-12.88,2.35,0.08,-0.27,-0.44,
2.854,-7.19,-12.88,2.35,0.08,-0.29,-0.28,
2.855,-7.28,-12.90,2.53,0.08,-0.29,-0.28,
2.859,-7.28,-12.90,2.53,0.10,-0.33,-0.13,
2.86,-7.32,-12.88,2.65,0.10,-0.33,-0.13,
2.864,-7.32,-12.88,2.65,0.13,-0.36,0.03,
2.864,-7.36,-12.90,2.77,0.13,-0.36,0.03,
2.872,-7.36,-12.90,2.77,0.16,-0.39,0.20,
2.873,-7.33,-12.94,2.77,0.16,-0.39,0.20,
2.874,-7.33,-12.94,2.77,0.20,-0.42,0.36,
2.874,-7.20,-13.09,2.73,0.20,-0.42,0.36,
2.878,-7.20,-13.09,2.73,0.23,-0.44,0.53,
2.879,-7.07,-13.31,2.68,0.23,-0.44,0.53,
2.908,-7.07,-13.31,2.68,0.26,-0.46,0.70,
2.909,-6.88,-13.55,2.58,0.26,-0.46,0.70,
2.909,-6.88,-13.55,2.58,0.28,-0.46,0.88,
2.909,-6.75,-13.74,2.46,0.28,-0.46,0.88,
2.91,-6.75,-13.74,2.46,0.29,-0.44,1.07,
2.91,-6.66,-13.85,2.27,0.29,-0.44,1.07,
2.91,-6.66,-13.85,2.27,0.28,-0.41,1.25,
2.911,-6.55,-13.94,2.03,0.28,-0.41,1.25,
2.911,-6.37,-14.02,1.79,0.28,-0.41,1.25,
2.912,-6.37,-14.02,1.79,0.26,-0.37,1.45,
2.912,-6.17,-14.16,1.56,0.26,-0.37,1.45,
2.912,-6.17,-14.16,1.56,0.21,-0.33,1.63,
2.913,-6.06,-14.24,1.31,0.21,-0.33,1.63,
2.913,-6.06,-14.24,1.31,0.15,-0.28,1.83,
2.917,-6.06,-14.24,1.31,0.07,-0.22,2.02,
2.918,-5.92,-14.36,1.10,0.07,-0.22,2.02,
2.922,-5.86,-14.44,0.86,0.07,-0.22,2.02,
2.923,-5.86,-14.44,0.86,-0.03,-0.16,2.21,
2.927,-5.72,-14.50,0.66,-0.03,-0.16,2.21,
2.928,-5.72,-14.50,0.66,-0.15,-0.11,2.40,
2.932,-5.68,-14.57,0.62,-0.15,-0.11,2.40,
2.932,-5.68,-14.57,0.62,-0.29,-0.05,2.60,
2.937,-5.62,-14.62,0.57,-0.29,-0.05,2.60,
2.938,-5.62,-14.62,0.57,-0.45,0.03,2.80,
2.942,-5.53,-14.68,0.59,-0.45,0.03,2.80,
2.942,-5.53,-14.68,0.59,-0.61,0.10,3.01,
2.947,-5.41,-14.68,0.73,-0.61,0.10,3.01,
2.948,-5.41,-14.68,0.73,-0.79,0.18,3.23,
2.953,-5.41,-14.68,0.73,-0.96,0.24,3.45,
2.954,-5.22,-14.69,0.89,-0.96,0.24,3.45,
2.957,-5.22,-14.69,0.89,-1.13,0.31,3.67,
2.958,-4.99,-14.70,1.14,-1.13,0.31,3.67,
2.962,-4.99,-14.70,1.14,-1.29,0.37,3.89,
2.963,-4.74,-14.68,1.44,-1.29,0.37,3.89,
2.978,-4.74,-14.68,1.44,-1.44,0.43,4.10,
2.98,-4.45,-14.63,1.70,-1.44,0.43,4.10,
2.981,-4.17,-14.64,2.01,-1.44,0.43,4.10,
2.981,-4.17,-14.64,2.01,-1.58,0.49,4.32,
2.982,-3.72,-14.69,2.31,-1.58,0.49,4.32,
2.983,-3.72,-14.69,2.31,-1.69,0.53,4.53,
2.984,-3.72,-14.69,2.31,-1.79,0.58,4.73,
2.984,-3.23,-14.77,2.56,-1.79,0.58,4.73,
3.027,-3.23,-14.77,2.56,-1.88,0.61,4.93,
3.028,-2.68,-14.82,2.90,-1.88,0.61,4.93,
3.029,-2.15,-14.82,3.23,-1.88,0.61,4.93,
3.029,-2.15,-14.82,3.23,-1.94,0.64,5.11,
3.03,-2.15,-14.82,3.23,-1.97,0.67,5.27,
3.03,-1.59,-14.76,3.57,-1.97,0.67,5.27,
3.031,-1.59,-14.76,3.57,-1.99,0.70,5.42,
3.031,-1.13,-14.64,3.82,-1.99,0.70,5.42,
3.032,-0.63,-14.51,4.04,-1.99,0.70,5.42,
3.032,-0.63,-14.51,4.04,-1.98,0.72,5.56,
3.033,-0.14,-14.38,4.20,-1.98,0.72,5.56,
3.033,-0.14,-14.38,4.20,-1.96,0.75,5.68,
3.034,-0.14,-14.38,4.20,-1.92,0.77,5.79,
3.035,0.31,-14.25,4.26,-1.92,0.77,5.79,
3.035,0.67,-14.19,4.23,-1.92,0.77,5.79,
3.036,0.67,-14.19,4.23,-1.88,0.79,5.90,
3.036,0.67,-14.19,4.23,-1.83,0.80,6.02,
3.037,1.01,-14.14,4.17,-1.83,0.80,6.02,
3.037,1.01,-14.14,4.17,-1.79,0.81,6.13,
3.037,1.54,-14.13,4.10,-1.79,0.81,6.13,
3.038,1.54,-14.13,4.10,-1.75,0.81,6.26,
3.038,2.11,-14.20,3.99,-1.75,0.81,6.26,
3.04,2.11,-14.20,3.99,-1.71,0.80,6.39,
3.042,2.70,-14.31,3.83,-1.71,0.80,6.39,
3.044,3.31,-14.44,3.72,-1.71,0.80,6.39,
3.045,3.31,-14.44,3.72,-1.66,0.80,6.52,
3.049,3.31,-14.44,3.72,-1.62,0.80,6.66,
3.05,3.99,-14.55,3.62,-1.62,0.80,6.66,
3.054,3.99,-14.55,3.62,-1.58,0.78,6.80,
3.055,4.76,-14.66,3.58,-1.58,0.78,6.80,
3.059,4.76,-14.66,3.58,-1.52,0.75,6.95,
3.06,5.67,-14.82,3.51,-1.52,0.75,6.95,
3.064,5.67,-14.82,3.51,-1.45,0.70,7.09,
3.064,6.62,-14.96,3.53,-1.45,0.70,7.09,
3.076,6.62,-14.96,3.53,-1.36,0.63,7.22,
3.077,7.66,-15.02,3.60,-1.36,0.63,7.22,
3.077,8.81,-15.01,3.65,-1.36,0.63,7.22,
3.078,8.81,-15.01,3.65,-1.24,0.54,7.33,
3.079,8.81,-15.01,3.65,-1.10,0.43,7.42,
3.08,10.06,-14.98,3.70,-1.10,0.43,7.42,
3.125,10.06,-14.98,3.70,-0.93,0.30,7.49,
3.126,11.27,-14.85,3.68,-0.93,0.30,7.49,
3.127,11.27,-14.85,3.68,-0.75,0.17,7.51,
3.128,12.42,-14.47,3.65,-0.75,0.17,7.51,
3.128,12.42,-14.47,3.65,-0.55,0.03,7.50,
3.129,13.48,-13.97,3.47,-0.55,0.03,7.50,
3.13,13.48,-13.97,3.47,-0.34,-0.09,7.45,
3.13,14.35,-13.32,3.19,-0.34,-0.09,7.45,
3.131,14.35,-13.32,3.19,-0.14,-0.21,7.37,
3.131,15.08,-12.62,2.79,-0.14,-0.21,7.37,
3.132,15.08,-12.62,2.79,0.03,-0.32,7.27,
3.134,15.63,-11.86,2.27,0.03,-0.32,7.27,
3.134,16.06,-11.08,1.59,0.03,-0.32,7.27,
3.136,16.06,-11.08,1.59,0.16,-0.40,7.15,
3.137,16.38,-10.29,0.93,0.16,-0.40,7.15,
3.137,16.38,-10.29,0.93,0.25,-0.46,7.02,
3.138,16.38,-10.29,0.93,0.29,-0.48,6.88,
3.138,16.72,-9.61,0.27,0.29,-0.48,6.88,
3.139,16.72,-9.61,0.27,0.28,-0.47,6.71,
3.14,17.08,-9.11,-0.27,0.28,-0.47,6.71,
3.14,17.08,-9.11,-0.27,0.23,-0.41,6.54,
3.14,17.30,-8.55,-0.66,0.23,-0.41,6.54,
3.141,17.34,-7.89,-0.89,0.23,-0.41,6.54,
3.142,17.34,-7.89,-0.89,0.13,-0.33,6.37,
3.142,17.34,-7.89,-0.89,0.01,-0.22,6.20,
3.143,17.30,-7.17,-0.98,0.01,-0.22,6.20,
3.165,17.30,-7.17,-0.98,-0.14,-0.07,6.05,
3.167,17.25,-6.46,-0.99,-0.14,-0.07,6.05,
3.168,17.25,-6.46,-0.99,-0.31,0.11,5.88,
3.168,17.17,-5.79,-0.80,-0.31,0.11,5.88,
3.169,17.04,-5.30,-0.50,-0.31,0.11,5.88,
3.17,17.04,-5.30,-0.50,-0.47,0.30,5.73,
3.17,17.04,-5.30,-0.50,-0.62,0.49,5.58,
3.17,16.86,-4.74,-0.18,-0.62,0.49,5.58,
3.171,16.86,-4.74,-0.18,-0.76,0.67,5.45,
3.171,16.66,-4.25,0.16,-0.76,0.67,5.45,
3.172,16.66,-4.25,0.16,-0.88,0.84,5.33,
3.172,16.54,-3.79,0.49,-0.88,0.84,5.33,
3.176,16.39,-3.28,0.86,-0.88,0.84,5.33,
3.177,16.39,-3.28,0.86,-0.98,0.99,5.23,
3.181,16.31,-2.67,1.20,-0.98,0.99,5.23,
3.181,16.31,-2.67,1.20,-1.06,1.14,5.13,
3.186,16.31,-2.67,1.20,-1.12,1.28,5.03,
3.187,16.23,-2.08,1.49,-1.12,1.28,5.03,
3.191,16.23,-2.08,1.49,-1.16,1.39,4.92,
3.191,16.05,-1.45,1.72,-1.16,1.39,4.92,
3.195,15.86,-0.84,1.90,-1.16,1.39,4.92,
3.196,15.86,-0.84,1.90,-1.20,1.49,4.81,
3.208,15.65,-0.22,1.97,-1.20,1.49,4.81,
3.209,15.65,-0.22,1.97,-1.22,1.58,4.70,
3.21,15.41,0.37,2.01,-1.22,1.58,4.70,
3.21,15.41,0.37,2.01,-1.24,1.66,4.58,
3.211,15.41,0.37,2.01,-1.28,1.74,4.46,
3.211,15.12,0.90,2.07,-1.28,1.74,4.46,
3.215,15.12,0.90,2.07,-1.31,1.80,4.34,
3.216,14.84,1.41,2.18,-1.31,1.80,4.34,
3.261,14.84,1.41,2.18,-1.34,1.87,4.21,
3.262,14.53,1.92,2.31,-1.34,1.87,4.21,
3.263,14.29,2.35,2.47,-1.34,1.87,4.21,
3.263,14.29,2.35,2.47,-1.36,1.93,4.08,
3.3,14.04,2.81,2.65,-1.36,1.93,4.08,
3.3,14.04,2.81,2.65,-1.39,1.98,3.94,
3.301,14.04,2.81,2.65,-1.40,2.02,3.80,
3.301,13.76,3.20,2.81,-1.40,2.02,3.80,
3.302,13.76,3.20,2.81,-1.41,2.05,3.67,
3.303,13.45,3.62,2.96,-1.41,2.05,3.67,
3.303,13.45,3.62,2.96,-1.42,2.07,3.52,
3.304,13.14,4.00,3.08,-1.42,2.07,3.52,
3.304,12.73,4.33,3.20,-1.42,2.07,3.52,
3.305,12.73,4.33,3.20,-1.42,2.09,3.38,
3.305,12.40,4.67,3.29,-1.42,2.09,3.38,
3.306,12.40,4.67,3.29,-1.41,2.10,3.23,
3.306,12.40,4.67,3.29,-1.40,2.10,3.09,
3.307,12.10,4.99,3.37,-1.40,2.10,3.09,
3.307,12.10,4.99,3.37,-1.38,2.10,2.95,
3.307,12.10,4.99,3.37,-1.36,2.09,2.81,
3.308,11.84,5.24,3.46,-1.36,2.09,2.81,
3.309,11.57,5.47,3.51,-1.36,2.09,2.81,
3.309,11.57,5.47,3.51,-1.34,2.07,2.67,
3.31,11.32,5.69,3.58,-1.34,2.07,2.67,
3.31,11.12,5.84,3.56,-1.34,2.07,2.67,
3.31,11.12,5.84,3.56,-1.31,2.04,2.53,
3.311,10.89,5.97,3.58,-1.31,2.04,2.53,
3.311,10.89,5.97,3.58,-1.28,2.01,2.38,
3.311,10.89,5.97,3.58,-1.26,1.97,2.23,
3.312,10.67,6.10,3.53,-1.26,1.97,2.23,
3.312,10.67,6.10,3.53,-1.23,1.93,2.09,
3.313,10.45,6.20,3.53,-1.23,1.93,2.09,
3.313,10.13,6.25,3.47,-1.23,1.93,2.09,
3.313,10.13,6.25,3.47,-1.21,1.89,1.94,
3.314,9.84,6.23,3.40,-1.21,1.89,1.94,
3.314,9.84,6.23,3.40,-1.19,1.85,1.80,
3.315,9.84,6.23,3.40,-1.17,1.81,1.67,
3.315,9.56,6.23,3.35,-1.17,1.81,1.67,
3.316,9.56,6.23,3.35,-1.15,1.76,1.54,
3.316,9.29,6.22,3.32,-1.15,1.76,1.54,
3.327,9.05,6.14,3.30,-1.15,1.76,1.54,
3.328,9.05,6.14,3.30,-1.13,1.72,1.42,
3.328,8.80,6.08,3.22,-1.13,1.72,1.42,
3.329,8.80,6.08,3.22,-1.12,1.68,1.30,
3.329,8.80,6.08,3.22,-1.11,1.64,1.20,
3.329,8.58,5.98,3.18,-1.11,1.64,1.20,
3.332,8.58,5.98,3.18,-1.10,1.59,1.10,
3.332,8.41,5.86,3.01,-1.10,1.59,1.10,
3.366,8.41,5.86,3.01,-1.10,1.55,1.01,
3.367,8.18,5.68,2.89,-1.10,1.55,1.01,
3.367,8.18,5.68,2.89,-1.10,1.51,0.94,
3.368,7.92,5.55,2.73,-1.10,1.51,0.94,
3.368,7.92,5.55,2.73,-1.12,1.49,0.87,
3.368,7.74,5.32,2.56,-1.12,1.49,0.87,
3.369,7.54,5.09,2.44,-1.12,1.49,0.87,
3.369,7.54,5.09,2.44,-1.15,1.46,0.82,
3.369,7.34,4.87,2.40,-1.15,1.46,0.82,
3.37,7.34,4.87,2.40,-1.19,1.43,0.79,
3.37,7.17,4.71,2.43,-1.19,1.43,0.79,
3.37,7.17,4.71,2.43,-1.23,1.40,0.76,
3.37,7.17,4.71,2.43,-1.27,1.38,0.74,
3.371,7.05,4.58,2.57,-1.27,1.38,0.74,
3.371,6.92,4.45,2.73,-1.27,1.38,0.74,
3.371,6.92,4.45,2.73,-1.31,1.35,0.73,
3.377,6.92,4.45,2.73,-1.34,1.31,0.73,
3.377,6.78,4.32,2.92,-1.34,1.31,0.73,
3.38,6.70,4.22,3.17,-1.34,1.31,0.73,
3.381,6.70,4.22,3.17,-1.36,1.25,0.74,
3.396,6.71,4.10,3.53,-1.36,1.25,0.74,
3.396,6.71,4.10,3.53,-1.35,1.19,0.76,
3.397,6.71,4.10,3.53,-1.34,1.11,0.79,
3.397,6.71,4.03,3.80,-1.34,1.11,0.79,
3.397,6.71,4.03,3.80,-1.30,1.01,0.83,
3.398,6.79,3.97,4.17,-1.30,1.01,0.83,
3.405,6.79,3.97,4.17,-1.24,0.91,0.86,
3.406,6.86,3.96,4.49,-1.24,0.91,0.86,
3.406,6.86,3.96,4.49,-1.17,0.79,0.90,
3.407,7.08,3.94,4.79,-1.17,0.79,0.90,
3.411,7.27,4.02,5.11,-1.17,0.79,0.90,
3.411,7.27,4.02,5.11,-1.08,0.68,0.93,
3.415,7.51,4.12,5.39,-1.08,0.68,0.93,
3.415,7.51,4.12,5.39,-0.97,0.56,0.96,
3.424,7.76,4.21,5.62,-0.97,0.56,0.96,
3.425,7.76,4.21,5.62,-0.83,0.43,0.99,
3.426,8.03,4.31,5.83,-0.83,0.43,0.99,
3.426,8.03,4.31,5.83,-0.69,0.31,1.01,
3.43,8.03,4.31,5.83,-0.54,0.18,1.02,
3.43,8.32,4.40,6.02,-0.54,0.18,1.02,
3.451,8.66,4.52,6.16,-0.54,0.18,1.02,
3.452,8.66,4.52,6.16,-0.37,0.06,1.02,
3.452,8.91,4.70,6.20,-0.37,0.06,1.02,
3.453,8.91,4.70,6.20,-0.20,-0.05,1.03,
3.453,8.91,4.70,6.20,-0.01,-0.16,1.02,
3.454,9.27,4.86,6.27,-0.01,-0.16,1.02,
3.455,10.06,4.85,6.25,-0.01,-0.16,1.02,
3.455,10.06,4.85,6.25,0.17,-0.24,0.99,
3.455,10.29,5.34,6.15,0.17,-0.24,0.99,
3.456,10.29,5.34,6.15,0.35,-0.32,0.92,
3.459,10.29,5.34,6.15,0.53,-0.40,0.84,
3.46,10.41,5.81,5.91,0.53,-0.40,0.84,
3.464,10.41,5.81,5.91,0.70,-0.47,0.77,
3.465,10.64,6.26,5.57,0.70,-0.47,0.77,
3.475,10.64,6.26,5.57,0.85,-0.50,0.71,
3.476,11.02,6.63,5.16,0.85,-0.50,0.71,
3.504,11.45,6.86,4.77,0.85,-0.50,0.71,
3.505,11.45,6.86,4.77,0.99,-0.52,0.63,
3.505,11.45,6.86,4.77,1.11,-0.52,0.54,
3.506,11.82,7.07,4.22,1.11,-0.52,0.54,
3.506,11.82,7.07,4.22,1.21,-0.51,0.43,
3.506,12.14,7.20,3.57,1.21,-0.51,0.43,
3.507,12.14,7.20,3.57,1.27,-0.50,0.30,
3.507,12.30,7.29,2.91,1.27,-0.50,0.30,
3.508,12.44,7.38,2.23,1.27,-0.50,0.30,
3.508,12.44,7.38,2.23,1.31,-0.49,0.16,
3.509,12.44,7.38,2.23,1.32,-0.46,0.02,
3.509,12.49,7.45,1.62,1.32,-0.46,0.02,
3.509,12.49,7.45,1.62,1.30,-0.43,-0.11,
3.51,12.54,7.44,1.10,1.30,-0.43,-0.11,
3.51,12.54,7.44,1.10,1.26,-0.41,-0.25,
3.511,12.56,7.42,0.80,1.26,-0.41,-0.25,
3.513,12.63,7.28,0.53,1.26,-0.41,-0.25,
3.514,12.63,7.28,0.53,1.22,-0.41,-0.37,
3.518,12.77,7.15,0.30,1.22,-0.41,-0.37,
3.519,12.77,7.15,0.30,1.16,-0.43,-0.49,
3.522,12.92,6.97,0.07,1.16,-0.43,-0.49,
3.523,12.92,6.97,0.07,1.11,-0.48,-0.60,
3.528,12.92,6.97,0.07,1.05,-0.53,-0.70,
3.528,13.11,6.81,-0.04,1.05,-0.53,-0.70,
3.532,13.11,6.81,-0.04,1.00,-0.58,-0.80,
3.532,13.33,6.66,-0.10,1.00,-0.58,-0.80,
3.541,13.33,6.66,-0.10,0.95,-0.64,-0.90,
3.543,13.62,6.49,0.03,0.95,-0.64,-0.90,
3.543,13.92,6.36,0.21,0.95,-0.64,-0.90,
3.543,13.92,6.36,0.21,0.91,-0.71,-1.01,
3.547,14.21,6.27,0.45,0.91,-0.71,-1.01,
3.547,14.21,6.27,0.45,0.87,-0.78,-1.14,
3.574,14.39,6.22,0.72,0.87,-0.78,-1.14,
3.575,14.39,6.22,0.72,0.85,-0.85,-1.29,
3.575,14.47,6.12,0.93,0.85,-0.85,-1.29,
3.575,14.47,6.12,0.93,0.84,-0.92,-1.46,
3.576,14.43,5.97,1.18,0.84,-0.92,-1.46,
3.576,14.43,5.97,1.18,0.84,-1.00,-1.64,
3.577,14.38,5.69,1.47,0.84,-1.00,-1.64,
3.577,14.38,5.69,1.47,0.85,-1.08,-1.84,
3.577,14.27,5.36,1.69,0.85,-1.08,-1.84,
3.578,14.27,5.36,1.69,0.87,-1.16,-2.04,
3.578,14.27,5.36,1.69,0.90,-1.24,-2.24,
3.579,14.07,5.03,1.93,0.90,-1.24,-2.24,
3.581,13.82,4.63,2.23,0.90,-1.24,-2.24,
3.582,13.82,4.63,2.23,0.94,-1.31,-2.44,
3.586,13.55,4.31,2.49,0.94,-1.31,-2.44,
3.587,13.55,4.31,2.49,0.98,-1.39,-2.64,
3.591,13.55,4.31,2.49,1.04,-1.45,-2.84,
3.592,13.17,3.95,2.73,1.04,-1.45,-2.84,
3.596,13.17,3.95,2.73,1.10,-1.48,-3.03,
3.596,12.79,3.59,2.85,1.10,-1.48,-3.03,
3.601,12.46,3.12,2.84,1.10,-1.48,-3.03,
3.602,12.46,3.12,2.84,1.16,-1.50,-3.21,
3.606,12.46,3.12,2.84,1.22,-1.50,-3.39,
3.607,12.19,2.65,2.80,1.22,-1.50,-3.39,
3.611,12.19,2.65,2.80,1.27,-1.48,-3.56,
3.611,11.86,2.10,2.70,1.27,-1.48,-3.56,
3.616,11.86,2.10,2.70,1.31,-1.45,-3.73,
3.616,11.59,1.55,2.50,1.31,-1.45,-3.73,
3.625,11.32,0.93,2.32,1.31,-1.45,-3.73,
3.626,11.32,0.93,2.32,1.34,-1.41,-3.89,
3.626,11.32,0.93,2.32,1.36,-1.36,-4.04,
3.627,11.03,0.28,2.16,1.36,-1.36,-4.04,
3.63,10.74,-0.40,2.06,1.36,-1.36,-4.04,
3.631,10.74,-0.40,2.06,1.37,-1.32,-4.18,
3.657,10.48,-1.08,2.02,1.37,-1.32,-4.18,
3.658,10.48,-1.08,2.02,1.36,-1.28,-4.30,
3.659,10.26,-1.80,1.86,1.36,-1.28,-4.30,
3.659,10.26,-1.80,1.86,1.36,-1.24,-4.41,
3.66,10.26,-1.80,1.86,1.35,-1.21,-4.50,
3.66,10.03,-2.45,1.74,1.35,-1.21,-4.50,
3.66,9.84,-3.08,1.62,1.35,-1.21,-4.50,
3.661,9.84,-3.08,1.62,1.34,-1.18,-4.58,
3.661,9.57,-3.77,1.57,1.34,-1.18,-4.58,
3.662,9.57,-3.77,1.57,1.32,-1.17,-4.64,
3.662,9.36,-4.42,1.50,1.32,-1.17,-4.64,
3.662,9.36,-4.42,1.50,1.31,-1.17,-4.68,
3.664,9.26,-5.01,1.51,1.31,-1.17,-4.68,
3.664,9.26,-5.01,1.51,1.29,-1.19,-4.70,
3.676,9.20,-5.59,1.52,1.29,-1.19,-4.70,
3.677,9.20,-5.59,1.52,1.28,-1.24,-4.69,
3.677,9.24,-6.18,1.60,1.28,-1.24,-4.69,
3.677,9.24,-6.18,1.60,1.26,-1.31,-4.67,
3.678,9.24,-6.18,1.60,1.26,-1.40,-4.63,
3.679,9.39,-6.75,1.66,1.26,-1.40,-4.63,
3.684,9.39,-6.75,1.66,1.27,-1.51,-4.59,
3.684,9.60,-7.31,1.72,1.27,-1.51,-4.59,
3.71,9.60,-7.31,1.72,1.28,-1.63,-4.53,
3.711,9.82,-7.80,1.82,1.28,-1.63,-4.53,
3.711,9.82,-7.80,1.82,1.30,-1.76,-4.48,
3.711,10.09,-8.21,1.95,1.30,-1.76,-4.48,
3.712,10.09,-8.21,1.95,1.32,-1.89,-4.44,
3.712,10.40,-8.54,2.14,1.32,-1.89,-4.44,
3.713,10.40,-8.54,2.14,1.34,-2.02,-4.42,
3.713,10.77,-8.84,2.35,1.34,-2.02,-4.42,
3.713,10.77,-8.84,2.35,1.36,-2.15,-4.42,
3.714,11.09,-9.09,2.64,1.36,-2.15,-4.42,
3.714,11.09,-9.09,2.64,1.40,-2.26,-4.46,
3.714,11.35,-9.32,3.08,1.40,-2.26,-4.46,
3.744,11.52,-9.54,3.48,1.40,-2.26,-4.46,
3.745,11.52,-9.54,3.48,1.44,-2.37,-4.51,
3.745,11.52,-9.54,3.48,1.49,-2.48,-4.59,
3.746,11.56,-9.76,3.77,1.49,-2.48,-4.59,
3.746,11.58,-9.97,4.00,1.49,-2.48,-4.59,
3.747,11.58,-9.97,4.00,1.55,-2.58,-4.68,
3.747,11.58,-9.97,4.00,1.59,-2.66,-4.77,
3.747,11.64,-10.11,4.21,1.59,-2.66,-4.77,
3.748,11.64,-10.11,4.21,1.64,-2.74,-4.88,
3.748,11.66,-10.30,4.38,1.64,-2.74,-4.88,
3.749,11.62,-10.55,4.54,1.64,-2.74,-4.88,
3.749,11.62,-10.55,4.54,1.67,-2.80,-4.98,
3.75,11.55,-10.88,4.74,1.67,-2.80,-4.98,
3.75,11.55,-10.88,4.74,1.69,-2.83,-5.10,
3.751,11.45,-11.21,4.91,1.69,-2.83,-5.10,
3.752,11.45,-11.21,4.91,1.70,-2.81,-5.20,
3.765,11.33,-11.48,5.02,1.70,-2.81,-5.20,
3.766,11.33,-11.48,5.02,1.70,-2.73,-5.30,
3.766,11.33,-11.48,5.02,1.71,-2.61,-5.40,
3.767,11.15,-11.69,5.19,1.71,-2.61,-5.40,
3.767,11.15,-11.69,5.19,1.71,-2.44,-5.48,
3.768,10.90,-11.89,5.25,1.71,-2.44,-5.48,
3.796,10.90,-11.89,5.25,1.71,-2.23,-5.55,
3.797,10.57,-12.00,5.24,1.71,-2.23,-5.55,
3.797,10.57,-12.00,5.24,1.72,-2.01,-5.62,
3.797,10.20,-12.20,5.13,1.72,-2.01,-5.62,
3.798,9.80,-12.31,4.92,1.72,-2.01,-5.62,
3.799,9.80,-12.31,4.92,1.72,-1.80,-5.67,
3.799,9.80,-12.31,4.92,1.71,-1.60,-5.71,
3.799,9.38,-12.42,4.67,1.71,-1.60,-5.71,
3.8,8.93,-12.59,4.34,1.71,-1.60,-5.71,
3.8,8.93,-12.59,4.34,1.70,-1.44,-5.73,
3.8,8.48,-12.75,4.06,1.70,-1.44,-5.73,
3.801,8.48,-12.75,4.06,1.66,-1.29,-5.74,
3.801,8.48,-12.75,4.06,1.62,-1.14,-5.75,
3.801,8.02,-12.86,3.75,1.62,-1.14,-5.75,
3.828,8.02,-12.86,3.75,1.57,-1.00,-5.75,
3.829,7.65,-12.97,3.51,1.57,-1.00,-5.75,
3.83,7.28,-13.06,3.29,1.57,-1.00,-5.75,
3.83,7.28,-13.06,3.29,1.51,-0.87,-5.74,
3.831,6.91,-13.21,3.13,1.51,-0.87,-5.74,
3.831,6.91,-13.21,3.13,1.44,-0.74,-5.74,
3.831,6.52,-13.36,3.09,1.44,-0.74,-5.74,
3.832,6.52,-13.36,3.09,1.37,-0.63,-5.74,
3.832,6.52,-13.36,3.09,1.31,-0.52,-5.74,
3.832,6.11,-13.43,3.02,1.31,-0.52,-5.74,
3.833,6.11,-13.43,3.02,1.26,-0.42,-5.74,
3.833,5.72,-13.44,3.04,1.26,-0.42,-5.74,
3.861,5.72,-13.44,3.04,1.21,-0.35,-5.74,
3.862,5.33,-13.48,3.15,1.21,-0.35,-5.74,
3.862,4.88,-13.58,3.17,1.21,-0.35,-5.74,
3.863,4.88,-13.58,3.17,1.18,-0.29,-5.74,
3.863,4.88,-13.58,3.17,1.16,-0.26,-5.74,
3.863,4.45,-13.62,3.10,1.16,-0.26,-5.74,
3.864,4.45,-13.62,3.10,1.14,-0.24,-5.74,
3.864,3.96,-13.71,3.10,1.14,-0.24,-5.74,
3.865,3.96,-13.71,3.10,1.13,-0.23,-5.73,
3.865,3.54,-13.73,3.11,1.13,-0.23,-5.73,
3.865,3.11,-13.82,3.12,1.13,-0.23,-5.73,
3.866,3.11,-13.82,3.12,1.11,-0.23,-5.73,
3.866,2.58,-13.86,3.16,1.11,-0.23,-5.73,
3.867,2.58,-13.86,3.16,1.10,-0.24,-5.72,
3.881,2.58,-13.86,3.16,1.09,-0.26,-5.71,
3.882,2.13,-13.92,3.22,1.09,-0.26,-5.71,
3.882,2.13,-13.92,3.22,1.08,-0.30,-5.69,
3.882,1.61,-13.90,3.24,1.08,-0.30,-5.69,
3.883,1.21,-13.90,3.37,1.08,-0.30,-5.69,
3.883,1.21,-13.90,3.37,1.08,-0.34,-5.66,
3.884,1.21,-13.90,3.37,1.08,-0.38,-5.63,
3.884,0.76,-13.90,3.47,1.08,-0.38,-5.63,
3.896,0.35,-13.95,3.61,1.08,-0.38,-5.63,
3.897,0.35,-13.95,3.61,1.09,-0.44,-5.60,
3.898,0.35,-13.95,3.61,1.10,-0.51,-5.56,
3.898,-0.06,-14.08,3.79,1.10,-0.51,-5.56,
3.899,-0.06,-14.08,3.79,1.13,-0.59,-5.52,
3.9,-0.52,-14.15,4.01,1.13,-0.59,-5.52,
3.934,-0.52,-14.15,4.01,1.17,-0.69,-5.47,
3.935,-1.00,-14.22,4.13,1.17,-0.69,-5.47,
3.935,-1.46,-14.33,4.16,1.17,-0.69,-5.47,
3.936,-1.46,-14.33,4.16,1.22,-0.82,-5.41,
3.936,-1.46,-14.33,4.16,1.26,-0.95,-5.33,
3.937,-2.00,-14.42,4.05,1.26,-0.95,-5.33,
3.937,-2.00,-14.42,4.05,1.31,-1.10,-5.24,
3.938,-2.59,-14.51,4.00,1.31,-1.10,-5.24,
3.939,-2.59,-14.51,4.00,1.34,-1.24,-5.12,
3.939,-3.16,-14.55,3.85,1.34,-1.24,-5.12,
3.94,-3.16,-14.55,3.85,1.36,-1.39,-4.99,
3.94,-3.66,-14.54,3.66,1.36,-1.39,-4.99,
3.941,-3.66,-14.54,3.66,1.35,-1.54,-4.84,
3.941,-4.13,-14.50,3.49,1.35,-1.54,-4.84,
3.941,-4.13,-14.50,3.49,1.31,-1.68,-4.69,
3.942,-4.49,-14.47,3.41,1.31,-1.68,-4.69,
3.942,-4.73,-14.39,3.38,1.31,-1.68,-4.69,
3.943,-4.73,-14.39,3.38,1.25,-1.81,-4.52,
3.947,-4.73,-14.39,3.38,1.18,-1.93,-4.35,
3.948,-4.90,-14.31,3.33,1.18,-1.93,-4.35,
3.952,-4.97,-14.30,3.36,1.18,-1.93,-4.35,
3.952,-4.97,-14.30,3.36,1.09,-2.03,-4.18,
3.96,-4.92,-14.36,3.44,1.09,-2.03,-4.18,
3.961,-4.92,-14.36,3.44,0.99,-2.10,-4.01,
3.996,-4.87,-14.41,3.55,0.99,-2.10,-4.01,
3.997,-4.87,-14.41,3.55,0.89,-2.15,-3.84,
3.998,-4.87,-14.41,3.55,0.77,-2.19,-3.68,
3.998,-4.79,-14.48,3.70,0.77,-2.19,-3.68,
3.999,-4.79,-14.48,3.70,0.65,-2.20,-3.53,
3.999,-4.70,-14.49,3.79,0.65,-2.20,-3.53,
4.0,-4.64,-14.52,3.90,0.65,-2.20,-3.53,
4.001,-4.64,-14.52,3.90,0.52,-2.19,-3.39,
4.001,-4.64,-14.52,3.90,0.39,-2.15,-3.25,
4.002,-4.59,-14.57,4.01,0.39,-2.15,-3.25,
4.003,-4.59,-14.57,4.01,0.26,-2.11,-3.11,
4.003,-4.60,-14.54,4.17,0.26,-2.11,-3.11,
4.004,-4.60,-14.54,4.17,0.12,-2.05,-2.97,
4.004,-4.62,-14.49,4.28,0.12,-2.05,-2.97,
4.005,-4.62,-14.49,4.28,-0.03,-1.98,-2.84,
4.006,-4.72,-14.43,4.37,-0.03,-1.98,-2.84,
4.006,-4.77,-14.36,4.40,-0.03,-1.98,-2.84,
4.007,-4.77,-14.36,4.40,-0.19,-1.90,-2.71,
4.008,-4.77,-14.36,4.40,-0.36,-1.80,-2.58,
4.008,-4.86,-14.32,4.53,-0.36,-1.80,-2.58,
4.01,-4.86,-14.32,4.53,-0.53,-1.68,-2.45,
4.011,-4.95,-14.26,4.68,-0.53,-1.68,-2.45,
4.015,-4.95,-14.26,4.68,-0.70,-1.54,-2.32,
4.016,-5.02,-14.21,4.89,-0.70,-1.54,-2.32,
4.021,-5.10,-14.19,5.12,-0.70,-1.54,-2.32,
4.022,-5.10,-14.19,5.12,-0.88,-1.39,-2.19,
4.025,-5.16,-14.22,5.39,-0.88,-1.39,-2.19,
4.026,-5.16,-14.22,5.39,-1.03,-1.22,-2.06,
4.03,-5.16,-14.22,5.39,-1.18,-1.04,-1.91,
4.031,-5.24,-14.34,5.63,-1.18,-1.04,-1.91,
4.035,-5.27,-14.39,5.90,-1.18,-1.04,-1.91,
4.035,-5.27,-14.39,5.90,-1.30,-0.85,-1.77,
4.04,-5.27,-14.39,5.90,-1.39,-0.64,-1.62,
4.04,-5.14,-14.52,6.21,-1.39,-0.64,-1.62,
4.044,-5.14,-14.52,6.21,-1.45,-0.42,-1.47,
4.045,-4.90,-14.98,6.21,-1.45,-0.42,-1.47,
4.049,-4.90,-14.98,6.21,-1.50,-0.22,-1.32,
4.05,-4.88,-15.43,6.25,-1.50,-0.22,-1.32,
4.059,-4.88,-15.43,6.25,-1.53,-0.03,-1.16,
4.06,-4.92,-15.87,6.15,-1.53,-0.03,-1.16,
4.061,-4.92,-15.87,6.15,-1.55,0.15,-0.99,
4.061,-5.09,-16.13,5.98,-1.55,0.15,-0.99,
4.064,-5.09,-16.13,5.98,-1.56,0.32,-0.80,
4.064,-5.34,-16.18,5.77,-1.56,0.32,-0.80,
4.068,-5.34,-16.18,5.77,-1.56,0.47,-0.60,
4.069,-5.75,-16.25,5.60,-1.56,0.47,-0.60,
4.09,-5.75,-16.25,5.60,-1.56,0.60,-0.37,
4.091,-6.20,-16.20,5.51,-1.56,0.60,-0.37,
4.091,-6.20,-16.20,5.51,-1.55,0.69,-0.13,
4.091,-6.57,-16.17,5.38,-1.55,0.69,-0.13,
4.092,-6.57,-16.17,5.38,-1.53,0.75,0.14,
4.092,-6.90,-16.19,5.22,-1.53,0.75,0.14,
4.093,-6.90,-16.19,5.22,-1.50,0.78,0.43,
4.093,-7.18,-16.17,5.06,-1.50,0.78,0.43,
4.094,-7.48,-16.16,4.89,-1.50,0.78,0.43,
4.094,-7.48,-16.16,4.89,-1.47,0.79,0.72,
4.098,-7.48,-16.16,4.89,-1.44,0.77,1.03,
4.099,-7.73,-16.06,4.65,-1.44,0.77,1.03,
4.104,-7.73,-16.06,4.65,-1.42,0.72,1.35,
4.105,-7.98,-15.88,4.45,-1.42,0.72,1.35,
4.108,-8.13,-15.79,4.33,-1.42,0.72,1.35,
4.109,-8.13,-15.79,4.33,-1.40,0.66,1.69,
4.113,-8.15,-15.64,4.18,-1.40,0.66,1.69,
4.113,-8.15,-15.64,4.18,-1.39,0.58,2.03,
4.118,-7.96,-15.53,4.17,-1.39,0.58,2.03,
4.118,-7.96,-15.53,4.17,-1.39,0.50,2.39,
4.123,-7.96,-15.53,4.17,-1.40,0.42,2.74,
4.124,-7.63,-15.40,4.23,-1.40,0.42,2.74,
4.128,-7.11,-15.30,4.32,-1.40,0.42,2.74,
4.128,-7.11,-15.30,4.32,-1.40,0.35,3.08,
4.132,-6.47,-15.22,4.44,-1.40,0.35,3.08,
4.133,-6.47,-15.22,4.44,-1.39,0.29,3.41,
4.139,-5.85,-15.11,4.53,-1.39,0.29,3.41,
4.14,-5.85,-15.11,4.53,-1.39,0.25,3.72,
4.143,-5.23,-15.03,4.69,-1.39,0.25,3.72,
4.143,-5.23,-15.03,4.69,-1.39,0.21,4.01,
4.147,-4.66,-14.94,4.80,-1.39,0.21,4.01,
4.148,-4.66,-14.94,4.80,-1.37,0.19,4.27,
4.152,-4.05,-14.84,4.90,-1.37,0.19,4.27,
4.152,-4.05,-14.84,4.90,-1.36,0.19,4.51,
4.157,-3.44,-14.72,4.96,-1.36,0.19,4.51,
4.158,-3.44,-14.72,4.96,-1.34,0.21,4.73,
4.162,-3.44,-14.72,4.96,-1.31,0.24,4.92,
4.163,-2.79,-14.62,5.00,-1.31,0.24,4.92,
4.167,-2.22,-14.53,5.05,-1.31,0.24,4.92,
4.167,-2.22,-14.53,5.05,-1.28,0.28,5.09,
4.179,-2.22,-14.53,5.05,-1.25,0.32,5.25,
4.18,-1.64,-14.41,5.09,-1.25,0.32,5.25,
4.181,-1.15,-14.28,5.08,-1.25,0.32,5.25,
4.181,-1.15,-14.28,5.08,-1.22,0.39,5.37,
4.182,-0.65,-14.20,5.04,-1.22,0.39,5.37,
4.183,-0.65,-14.20,5.04,-1.18,0.46,5.48,
4.186,-0.14,-14.07,5.04,-1.18,0.46,5.48,
4.186,-0.14,-14.07,5.04,-1.14,0.53,5.57,
4.221,-0.14,-14.07,5.04,-1.10,0.61,5.63,
4.222,0.37,-14.04,5.01,-1.10,0.61,5.63,
4.222,0.37,-14.04,5.01,-1.05,0.68,5.69,
4.223,0.90,-14.03,5.02,-1.05,0.68,5.69,
4.223,1.32,-13.99,5.07,-1.05,0.68,5.69,
4.224,1.32,-13.99,5.07,-1.00,0.75,5.72,
4.267,1.32,-13.99,5.07,-0.93,0.81,5.75,
4.267,1.81,-13.99,5.14,-0.93,0.81,5.75,
4.268,2.24,-13.96,5.19,-0.93,0.81,5.75,
4.268,2.24,-13.96,5.19,-0.85,0.88,5.76,
4.269,2.68,-13.94,5.20,-0.85,0.88,5.76,
4.269,2.68,-13.94,5.20,-0.75,0.95,5.76,
4.27,3.05,-13.93,5.11,-0.75,0.95,5.76,
4.27,3.05,-13.93,5.11,-0.64,1.01,5.75,
4.271,3.05,-13.93,5.11,-0.52,1.07,5.75,
4.271,3.36,-13.95,5.00,-0.52,1.07,5.75,
4.272,3.75,-13.97,4.80,-0.52,1.07,5.75,
4.272,3.75,-13.97,4.80,-0.39,1.13,5.75,
4.273,4.10,-13.99,4.59,-0.39,1.13,5.75,
4.273,4.10,-13.99,4.59,-0.25,1.17,5.75,
4.274,4.50,-14.07,4.29,-0.25,1.17,5.75,
4.274,4.50,-14.07,4.29,-0.10,1.20,5.75,
4.275,4.93,-14.17,4.00,-0.10,1.20,5.75,
4.275,4.93,-14.17,4.00,0.05,1.22,5.75,
4.276,4.93,-14.17,4.00,0.21,1.21,5.76,
4.276,5.32,-14.28,3.73,0.21,1.21,5.76,
4.277,5.32,-14.28,3.73,0.38,1.19,5.78,
4.277,5.61,-14.37,3.32,0.38,1.19,5.78,
4.278,5.90,-14.43,2.91,0.38,1.19,5.78,
4.278,5.90,-14.43,2.91,0.54,1.15,5.80,
4.279,5.90,-14.43,2.91,0.70,1.10,5.83,
4.279,6.26,-14.58,2.39,0.70,1.10,5.83,
4.28,6.26,-14.58,2.39,0.85,1.03,5.87,
4.28,6.63,-14.74,1.84,0.85,1.03,5.87,
4.28,6.63,-14.74,1.84,0.98,0.95,5.92,
4.28,7.01,-14.91,1.27,0.98,0.95,5.92,
4.282,7.43,-14.97,0.65,0.98,0.95,5.92,
4.282,7.43,-14.97,0.65,1.08,0.86,5.99,
4.284,7.43,-14.97,0.65,1.17,0.76,6.06,
4.284,7.85,-14.97,0.04,1.17,0.76,6.06,
4.291,8.23,-14.98,-0.57,1.17,0.76,6.06,
4.292,8.23,-14.98,-0.57,1.22,0.67,6.13,
4.294,8.61,-14.98,-1.18,1.22,0.67,6.13,
4.294,8.61,-14.98,-1.18,1.24,0.55,6.21,
4.298,9.03,-15.01,-1.64,1.24,0.55,6.21,
4.299,9.03,-15.01,-1.64,1.23,0.43,6.29,
4.303,9.44,-15.00,-2.06,1.23,0.43,6.29,
4.303,9.44,-15.00,-2.06,1.20,0.31,6.38,
4.312,9.44,-15.00,-2.06,1.14,0.19,6.48,
4.313,9.83,-14.97,-2.44,1.14,0.19,6.48,
4.314,9.83,-14.97,-2.44,1.05,0.07,6.58,
4.314,10.26,-14.88,-2.71,1.05,0.07,6.58,
4.317,10.67,-14.81,-2.92,1.05,0.07,6.58,
4.318,10.67,-14.81,-2.92,0.96,-0.04,6.69,
4.351,11.13,-14.76,-2.99,0.96,-0.04,6.69,
4.352,11.13,-14.76,-2.99,0.84,-0.15,6.80,
4.352,11.13,-14.76,-2.99,0.72,-0.22,6.91,
4.353,11.72,-14.71,-3.00,0.72,-0.22,6.91,
4.355,11.72,-14.71,-3.00,0.59,-0.29,7.03,
4.355,12.37,-14.63,-2.84,0.59,-0.29,7.03,
4.356,12.37,-14.63,-2.84,0.46,-0.33,7.15,
4.356,13.10,-14.56,-2.57,0.46,-0.33,7.15,
4.357,13.91,-14.48,-2.24,0.46,-0.33,7.15,
4.357,13.91,-14.48,-2.24,0.34,-0.35,7.26,
4.357,14.72,-14.32,-1.89,0.34,-0.35,7.26,
4.358,14.72,-14.32,-1.89,0.24,-0.36,7.37,
4.358,14.72,-14.32,-1.89,0.15,-0.35,7.47,
4.359,15.62,-14.23,-1.55,0.15,-0.35,7.47,
4.359,16.78,-14.02,-1.03,0.15,-0.35,7.47,
4.36,16.78,-14.02,-1.03,0.08,-0.30,7.56,
4.382,16.78,-14.02,-1.03,0.04,-0.21,7.61,
4.383,17.54,-13.78,-0.67,0.04,-0.21,7.61,
4.384,17.54,-13.78,-0.67,0.01,-0.12,7.64,
4.384,17.88,-13.44,-0.37,0.01,-0.12,7.64,
4.385,17.88,-13.44,-0.37,-0.03,-0.03,7.71,
4.385,18.20,-13.03,-0.18,-0.03,-0.03,7.71,
4.385,18.20,-13.03,-0.18,-0.07,0.08,7.78,
4.386,18.79,-12.57,0.02,-0.07,0.08,7.78,
4.386,18.79,-12.57,0.02,-0.12,0.21,7.86,
4.387,19.42,-12.02,0.13,-0.12,0.21,7.86,
4.387,20.05,-11.47,0.32,-0.12,0.21,7.86,
4.388,20.05,-11.47,0.32,-0.17,0.37,7.92,
4.396,20.66,-10.81,0.58,-0.17,0.37,7.92,
4.397,20.66,-10.81,0.58,-0.22,0.56,7.94,
4.397,21.28,-10.08,0.88,-0.22,0.56,7.94,
4.398,21.28,-10.08,0.88,-0.26,0.77,7.92,
4.401,21.99,-9.24,1.17,-0.26,0.77,7.92,
4.401,21.99,-9.24,1.17,-0.31,0.98,7.86,
4.411,22.72,-8.34,1.52,-0.31,0.98,7.86,
4.413,22.72,-8.34,1.52,-0.34,1.18,7.75,
4.413,23.32,-7.41,1.80,-0.34,1.18,7.75,
4.414,23.32,-7.41,1.80,-0.36,1.36,7.59,
4.415,23.75,-6.45,1.99,-0.36,1.36,7.59,
4.415,23.75,-6.45,1.99,-0.37,1.55,7.39,
4.42,23.94,-5.48,2.14,-0.37,1.55,7.39,
4.421,23.94,-5.48,2.14,-0.37,1.73,7.16,
4.446,24.00,-4.51,2.32,-0.37,1.73,7.16,
4.446,24.00,-4.51,2.32,-0.35,1.92,6.90,
4.447,23.93,-3.55,2.46,-0.35,1.92,6.90,
4.447,23.93,-3.55,2.46,-0.31,2.08,6.62,
4.448,23.93,-3.55,2.46,-0.27,2.24,6.34,
4.448,23.74,-2.63,2.55,-0.27,2.24,6.34,
4.448,23.74,-2.63,2.55,-0.21,2.37,6.05,
4.449,23.51,-1.68,2.51,-0.21,2.37,6.05,
4.449,23.51,-1.68,2.51,-0.16,2.47,5.76,
4.45,23.08,-0.63,2.40,-0.16,2.47,5.76,
4.479,23.08,-0.63,2.40,-0.10,2.54,5.48,
4.479,22.60,0.26,2.22,-0.10,2.54,5.48,
4.48,22.60,0.26,2.22,-0.04,2.59,5.22,
4.48,22.00,1.06,1.99,-0.04,2.59,5.22,
4.481,21.40,1.76,1.80,-0.04,2.59,5.22,
4.481,21.40,1.76,1.80,0.00,2.63,4.97,
4.481,21.40,1.76,1.80,0.04,2.66,4.75,
4.482,20.77,2.37,1.68,0.04,2.66,4.75,
4.482,20.77,2.37,1.68,0.08,2.68,4.54,
4.482,20.19,2.90,1.55,0.08,2.68,4.54,
4.483,19.67,3.41,1.48,0.08,2.68,4.54,
4.483,19.67,3.41,1.48,0.12,2.67,4.35,
4.484,19.26,3.88,1.37,0.12,2.67,4.35,
4.484,19.26,3.88,1.37,0.17,2.64,4.19,
4.484,18.91,4.45,1.23,0.17,2.64,4.19,
4.485,18.91,4.45,1.23,0.22,2.59,4.04,
4.495,18.91,4.45,1.23,0.28,2.53,3.91,
4.496,18.59,4.97,1.10,0.28,2.53,3.91,
4.497,18.59,4.97,1.10,0.34,2.45,3.78,
4.497,18.32,5.58,0.89,0.34,2.45,3.78,
4.497,18.32,5.58,0.89,0.40,2.36,3.66,
4.498,18.10,6.11,0.64,0.40,2.36,3.66,
4.503,17.98,6.60,0.44,0.40,2.36,3.66,
4.503,17.98,6.60,0.44,0.47,2.27,3.54,
4.531,17.87,7.07,0.23,0.47,2.27,3.54,
4.532,17.87,7.07,0.23,0.53,2.15,3.41,
4.533,17.82,7.52,-0.01,0.53,2.15,3.41,
4.533,17.82,7.52,-0.01,0.59,2.04,3.28,
4.533,17.80,7.90,-0.25,0.59,2.04,3.28,
4.534,17.80,7.90,-0.25,0.65,1.91,3.12,
4.534,17.76,8.27,-0.54,0.65,1.91,3.12,
4.534,17.76,8.27,-0.54,0.70,1.78,2.95,
4.535,17.67,8.55,-0.93,0.70,1.78,2.95,
4.535,17.67,8.55,-0.93,0.73,1.64,2.76,
4.535,17.67,8.55,-0.93,0.75,1.50,2.56,
4.535,17.45,8.84,-1.37,0.75,1.50,2.56,
4.537,17.45,8.84,-1.37,0.74,1.37,2.34,
4.539,17.15,9.02,-1.82,0.74,1.37,2.34,
4.542,17.15,9.02,-1.82,0.71,1.23,2.11,
4.543,16.79,9.10,-2.17,0.71,1.23,2.11,
4.547,16.79,9.10,-2.17,0.66,1.09,1.89,
4.548,16.35,9.16,-2.45,0.66,1.09,1.89,
4.551,16.35,9.16,-2.45,0.59,0.96,1.68,
4.552,15.83,9.17,-2.71,0.59,0.96,1.68,
4.557,15.33,9.14,-2.97,0.59,0.96,1.68,
4.557,15.33,9.14,-2.97,0.49,0.83,1.48,
4.562,15.33,9.14,-2.97,0.38,0.72,1.30,
4.562,14.82,9.04,-3.10,0.38,0.72,1.30,
4.566,14.29,8.88,-3.22,0.38,0.72,1.30,
4.567,14.29,8.88,-3.22,0.25,0.62,1.14,
4.572,13.75,8.79,-3.18,0.25,0.62,1.14,
4.573,13.75,8.79,-3.18,0.11,0.52,1.00,
4.576,13.75,8.79,-3.18,-0.05,0.43,0.88,
4.577,13.24,8.61,-3.11,-0.05,0.43,0.88,
4.581,13.24,8.61,-3.11,-0.20,0.37,0.79,
4.581,12.79,8.44,-2.90,-0.20,0.37,0.79,
4.586,12.42,8.31,-2.66,-0.20,0.37,0.79,
4.586,12.42,8.31,-2.66,-0.36,0.31,0.71,
4.591,12.42,8.31,-2.66,-0.50,0.28,0.65,
4.592,12.13,8.18,-2.21,-0.50,0.28,0.65,
4.596,11.93,8.11,-1.76,-0.50,0.28,0.65,
4.597,11.93,8.11,-1.76,-0.63,0.26,0.62,
4.601,11.81,8.03,-1.29,-0.63,0.26,0.62,
4.601,11.81,8.03,-1.29,-0.73,0.23,0.59,
4.614,11.76,7.97,-0.84,-0.73,0.23,0.59,
4.615,11.76,7.97,-0.84,-0.82,0.22,0.58,
4.616,11.77,7.95,-0.42,-0.82,0.22,0.58,
4.616,11.77,7.95,-0.42,-0.88,0.21,0.57,
4.617,11.77,7.95,-0.42,-0.93,0.20,0.56,
4.617,11.83,7.96,0.03,-0.93,0.20,0.56,
4.62,11.83,7.96,0.03,-0.95,0.20,0.56,
4.621,11.94,8.01,0.47,-0.95,0.20,0.56,
4.659,11.94,8.01,0.47,-0.95,0.19,0.55,
4.66,12.20,8.03,0.86,-0.95,0.19,0.55,
4.661,12.20,8.03,0.86,-0.92,0.18,0.54,
4.661,12.44,8.12,1.20,-0.92,0.18,0.54,
4.661,12.63,8.20,1.43,-0.92,0.18,0.54,
4.662,12.63,8.20,1.43,-0.89,0.18,0.53,
4.662,12.95,8.34,1.61,-0.89,0.18,0.53,
4.662,12.95,8.34,1.61,-0.85,0.17,0.51,
4.663,12.95,8.34,1.61,-0.79,0.15,0.48,
4.663,13.25,8.43,1.83,-0.79,0.15,0.48,
4.664,13.57,8.53,1.99,-0.79,0.15,0.48,
4.664,13.57,8.53,1.99,-0.73,0.12,0.45,
4.664,13.90,8.58,2.12,-0.73,0.12,0.45,
4.665,13.90,8.58,2.12,-0.66,0.09,0.42,
4.665,13.90,8.58,2.12,-0.59,0.06,0.38,
4.666,14.28,8.70,2.25,-0.59,0.06,0.38,
4.666,14.69,8.81,2.34,-0.59,0.06,0.38,
4.666,14.69,8.81,2.34,-0.51,0.03,0.34,
4.669,14.69,8.81,2.34,-0.42,-0.00,0.29,
4.669,15.17,8.88,2.34,-0.42,-0.00,0.29,
4.673,15.80,8.93,2.36,-0.42,-0.00,0.29,
4.675,15.80,8.93,2.36,-0.33,-0.04,0.22,
4.679,16.28,9.10,2.24,-0.33,-0.04,0.22,
4.68,16.28,9.10,2.24,-0.24,-0.11,0.14,
4.684,16.66,9.36,2.13,-0.24,-0.11,0.14,
4.684,16.66,9.36,2.13,-0.15,-0.19,0.04,
4.69,16.66,9.36,2.13,-0.06,-0.29,-0.07,
4.691,16.97,9.61,2.01,-0.06,-0.29,-0.07,
4.74,16.97,9.61,2.01,0.04,-0.40,-0.18,
4.741,17.27,9.88,1.98,0.04,-0.40,-0.18,
4.742,17.56,10.21,1.95,0.04,-0.40,-0.18,
4.742,17.56,10.21,1.95,0.13,-0.54,-0.30,
4.743,17.56,10.21,1.95,0.23,-0.70,-0.42,
4.744,17.88,10.49,1.98,0.23,-0.70,-0.42,
4.744,17.88,10.49,1.98,0.32,-0.90,-0.57,
4.745,18.39,10.70,1.98,0.32,-0.90,-0.57,
4.746,18.39,10.70,1.98,0.41,-1.09,-0.74,
4.747,19.08,10.76,1.97,0.41,-1.09,-0.74,
4.748,19.78,10.52,2.02,0.41,-1.09,-0.74,
4.748,19.78,10.52,2.02,0.50,-1.28,-0.97,
4.749,19.78,10.52,2.02,0.58,-1.43,-1.26,
4.75,20.38,10.13,2.04,0.58,-1.43,-1.26,
4.75,20.38,10.13,2.04,0.66,-1.53,-1.60,
4.751,20.74,9.56,2.02,0.66,-1.53,-1.60,
4.752,20.83,8.97,2.03,0.66,-1.53,-1.60,
4.752,20.83,8.97,2.03,0.74,-1.57,-1.99,
4.753,20.83,8.97,2.03,0.81,-1.57,-2.39,
4.754,20.63,8.31,2.01,0.81,-1.57,-2.39,
4.754,20.63,8.31,2.01,0.88,-1.53,-2.81,
4.755,20.19,7.68,1.89,0.88,-1.53,-2.81,
4.756,19.47,7.04,1.62,0.88,-1.53,-2.81,
4.756,19.47,7.04,1.62,0.93,-1.48,-3.22,
4.757,18.59,6.42,1.27,0.93,-1.48,-3.22,
4.758,18.59,6.42,1.27,0.94,-1.43,-3.60,
4.759,18.59,6.42,1.27,0.92,-1.37,-3.94,
4.759,17.71,5.79,1.07,0.92,-1.37,-3.94,
4.762,16.89,5.04,1.04,0.92,-1.37,-3.94,
4.763,16.89,5.04,1.04,0.87,-1.33,-4.25,
4.766,16.89,5.04,1.04,0.81,-1.29,-4.53,
4.767,16.25,4.19,1.09,0.81,-1.29,-4.53,
4.779,16.25,4.19,1.09,0.73,-1.26,-4.78,
4.78,15.73,3.27,0.96,0.73,-1.26,-4.78,
4.78,15.73,3.27,0.96,0.64,-1.23,-5.01,
4.781,15.17,2.25,0.66,0.64,-1.23,-5.01,
4.781,14.62,1.24,0.80,0.64,-1.23,-5.01,
4.781,14.62,1.24,0.80,0.55,-1.18,-5.21,
4.786,14.62,1.24,0.80,0.45,-1.12,-5.37,
4.787,14.12,0.33,1.02,0.45,-1.12,-5.37,
4.811,14.12,0.33,1.02,0.37,-1.09,-5.51,
4.812,13.63,-0.52,1.21,0.37,-1.09,-5.51,
4.813,13.24,-1.29,1.43,0.37,-1.09,-5.51,
4.813,13.24,-1.29,1.43,0.32,-1.06,-5.62,
4.813,13.24,-1.29,1.43,0.28,-1.02,-5.70,
4.814,12.89,-2.02,1.83,0.28,-1.02,-5.70,
4.814,12.89,-2.02,1.83,0.28,-0.99,-5.75,
4.815,12.61,-2.74,2.16,0.28,-0.99,-5.75,
4.815,12.61,-2.74,2.16,0.30,-0.97,-5.77,
4.815,12.33,-3.45,2.40,0.30,-0.97,-5.77,
4.816,12.30,-4.19,2.33,0.30,-0.97,-5.77,
4.816,12.30,-4.19,2.33,0.34,-0.97,-5.78,
4.82,12.30,-4.19,2.33,0.38,-0.99,-5.76,
4.821,12.44,-5.00,2.09,0.38,-0.99,-5.76,
4.825,12.67,-5.81,1.50,0.38,-0.99,-5.76,
4.826,12.67,-5.81,1.50,0.41,-1.06,-5.74,
4.83,13.08,-6.53,1.33,0.41,-1.06,-5.74,
4.831,13.08,-6.53,1.33,0.42,-1.15,-5.71,
4.835,13.63,-7.24,1.30,0.42,-1.15,-5.71,
4.835,13.63,-7.24,1.30,0.41,-1.27,-5.67,
4.848,14.32,-8.03,1.25,0.41,-1.27,-5.67,
4.85,14.32,-8.03,1.25,0.38,-1.43,-5.65,
4.85,14.32,-8.03,1.25,0.34,-1.62,-5.64,
4.851,15.21,-8.83,1.18,0.34,-1.62,-5.64,
4.851,15.21,-8.83,1.18,0.28,-1.83,-5.66,
4.852,16.02,-9.66,1.14,0.28,-1.83,-5.66,
4.854,16.02,-9.66,1.14,0.22,-2.03,-5.70,
4.855,16.91,-10.55,1.29,0.22,-2.03,-5.70,
4.886,16.91,-10.55,1.29,0.16,-2.24,-5.77,
4.888,17.79,-11.50,1.19,0.16,-2.24,-5.77,
4.889,18.60,-12.43,1.31,0.16,-2.24,-5.77,
4.889,18.60,-12.43,1.31,0.07,-2.44,-5.88,
4.89,19.25,-13.41,1.40,0.07,-2.44,-5.88,
4.891,19.25,-13.41,1.40,-0.01,-2.61,-6.01,
4.892,19.85,-14.40,1.52,-0.01,-2.61,-6.01,
4.893,19.85,-14.40,1.52,-0.11,-2.74,-6.17,
4.893,20.34,-15.42,1.56,-0.11,-2.74,-6.17,
4.894,20.34,-15.42,1.56,-0.21,-2.80,-6.34,
4.894,20.56,-16.27,1.74,-0.21,-2.80,-6.34,
4.895,20.56,-16.27,1.74,-0.32,-2.81,-6.54,
4.896,20.56,-16.27,1.74,-0.42,-2.75,-6.75,
4.896,20.46,-16.95,1.96,-0.42,-2.75,-6.75,
4.897,20.46,-16.95,1.96,-0.53,-2.64,-6.97,
4.897,20.15,-17.60,2.22,-0.53,-2.64,-6.97,
4.898,20.15,-17.60,2.22,-0.63,-2.48,-7.19,
4.899,19.61,-18.20,2.53,-0.63,-2.48,-7.19,
4.903,18.80,-18.76,2.87,-0.63,-2.48,-7.19,
4.905,18.80,-18.76,2.87,-0.71,-2.28,-7.39,
4.912,17.89,-19.19,3.25,-0.71,-2.28,-7.39,
4.913,17.89,-19.19,3.25,-0.76,-2.03,-7.56,
4.914,17.89,-19.19,3.25,-0.80,-1.77,-7.71,
4.915,17.01,-19.55,3.68,-0.80,-1.77,-7.71,
4.918,16.01,-19.85,4.01,-0.80,-1.77,-7.71,
4.919,16.01,-19.85,4.01,-0.80,-1.48,-7.84,
4.926,16.01,-19.85,4.01,-0.76,-1.18,-7.93,
4.927,14.84,-20.07,4.31,-0.76,-1.18,-7.93,
4.928,13.65,-20.16,4.46,-0.76,-1.18,-7.93,
4.929,13.65,-20.16,4.46,-0.69,-0.87,-8.00,
4.932,13.65,-20.16,4.46,-0.59,-0.58,-8.03,
4.933,12.48,-20.21,4.54,-0.59,-0.58,-8.03,
4.973,11.40,-20.30,4.43,-0.59,-0.58,-8.03,
4.974,11.40,-20.30,4.43,-0.47,-0.30,-8.02,
4.974,10.50,-20.58,4.15,-0.47,-0.30,-8.02,
4.975,10.50,-20.58,4.15,-0.33,-0.05,-7.97,
4.976,10.50,-20.58,4.15,-0.20,0.19,-7.90,
4.976,9.70,-20.78,3.81,-0.20,0.19,-7.90,
4.977,8.56,-20.76,3.34,-0.20,0.19,-7.90,
4.977,8.56,-20.76,3.34,-0.07,0.39,-7.80,
4.978,7.39,-20.48,2.79,-0.07,0.39,-7.80,
4.978,7.39,-20.48,2.79,0.03,0.56,-7.67,
4.979,6.24,-20.07,2.30,0.03,0.56,-7.67,
4.979,6.24,-20.07,2.30,0.09,0.69,-7.51,
4.98,6.24,-20.07,2.30,0.12,0.81,-7.33,
4.98,5.25,-19.60,1.93,0.12,0.81,-7.33,
4.981,5.25,-19.60,1.93,0.13,0.91,-7.14,
4.981,4.36,-19.12,1.66,0.13,0.91,-7.14,
4.981,4.36,-19.12,1.66,0.13,1.02,-6.95,
4.983,3.54,-18.71,1.55,0.13,1.02,-6.95,
4.983,2.82,-18.26,1.57,0.13,1.02,-6.95,
4.983,2.82,-18.26,1.57,0.12,1.11,-6.75,
4.994,2.16,-17.81,1.63,0.12,1.11,-6.75,
4.995,2.16,-17.81,1.63,0.11,1.20,-6.54,
4.996,2.16,-17.81,1.63,0.11,1.28,-6.34,
4.996,1.48,-17.39,1.78,0.11,1.28,-6.34,
5.032,0.86,-16.93,1.85,0.11,1.28,-6.34,
5.033,0.86,-16.93,1.85,0.13,1.36,-6.14,
5.033,0.32,-16.49,1.97,0.13,1.36,-6.14,
5.034,0.32,-16.49,1.97,0.15,1.44,-5.94,
5.034,0.32,-16.49,1.97,0.19,1.50,-5.75,
5.034,-0.28,-16.06,2.08,0.19,1.50,-5.75,
5.035,-0.28,-16.06,2.08,0.24,1.55,-5.57,
5.035,-0.71,-15.74,2.20,0.24,1.55,-5.57,
5.035,-0.71,-15.74,2.20,0.30,1.58,-5.39,
5.036,-1.20,-15.37,2.31,0.30,1.58,-5.39,
5.036,-1.65,-15.08,2.39,0.30,1.58,-5.39,
5.037,-1.65,-15.08,2.39,0.38,1.59,-5.23,
5.037,-1.65,-15.08,2.39,0.46,1.57,-5.06,
5.037,-2.06,-14.79,2.45,0.46,1.57,-5.06,
5.038,-2.44,-14.49,2.54,0.46,1.57,-5.06,
5.038,-2.44,-14.49,2.54,0.55,1.54,-4.89,
5.038,-2.77,-14.24,2.56,0.55,1.54,-4.89,
5.039,-2.77,-14.24,2.56,0.66,1.48,-4.74,
5.039,-3.04,-14.04,2.66,0.66,1.48,-4.74,
5.04,-3.04,-14.04,2.66,0.77,1.40,-4.59,
5.045,-3.28,-13.88,2.65,0.77,1.40,-4.59,
5.045,-3.28,-13.88,2.65,0.89,1.29,-4.44,
5.05,-3.28,-13.88,2.65,1.01,1.15,-4.29,
5.05,-3.42,-13.83,2.66,1.01,1.15,-4.29,
5.054,-3.42,-13.83,2.66,1.14,1.00,-4.15,
5.054,-3.47,-13.83,2.52,1.14,1.00,-4.15,
5.063,-3.55,-13.88,2.42,1.14,1.00,-4.15,
5.064,-3.55,-13.88,2.42,1.25,0.82,-4.00,
5.064,-3.55,-13.88,2.42,1.37,0.64,-3.85,
5.065,-3.64,-13.88,2.28,1.37,0.64,-3.85,
5.069,-3.72,-13.86,2.16,1.37,0.64,-3.85,
5.069,-3.72,-13.86,2.16,1.47,0.45,-3.70,
5.097,-3.88,-13.73,2.07,1.47,0.45,-3.70,
5.098,-3.88,-13.73,2.07,1.56,0.27,-3.55,
5.099,-3.88,-13.73,2.07,1.63,0.09,-3.40,
5.099,-4.08,-13.54,1.99,1.63,0.09,-3.40,
5.1,-4.24,-13.35,1.97,1.63,0.09,-3.40,
5.1,-4.24,-13.35,1.97,1.69,-0.06,-3.26,
5.1,-4.38,-13.12,1.97,1.69,-0.06,-3.26,
5.101,-4.38,-13.12,1.97,1.74,-0.22,-3.11,
5.101,-4.45,-12.99,1.96,1.74,-0.22,-3.11,
5.102,-4.45,-12.99,1.96,1.79,-0.38,-2.96,
5.102,-4.45,-12.99,1.96,1.83,-0.52,-2.82,
5.103,-4.52,-12.91,1.96,1.83,-0.52,-2.82,
5.103,-4.52,-12.91,1.96,1.85,-0.66,-2.67,
5.103,-4.64,-12.81,2.01,1.85,-0.66,-2.67,
5.108,-4.74,-12.68,2.03,1.85,-0.66,-2.67,
5.109,-4.74,-12.68,2.03,1.86,-0.76,-2.51,
5.113,-4.81,-12.56,2.07,1.86,-0.76,-2.51,
5.113,-4.81,-12.56,2.07,1.87,-0.83,-2.36,
5.118,-4.81,-12.56,2.07,1.86,-0.89,-2.21,
5.118,-4.75,-12.40,2.06,1.86,-0.89,-2.21,
5.124,-4.75,-12.40,2.06,1.83,-0.95,-2.06,
5.125,-4.65,-12.29,2.07,1.83,-0.95,-2.06,
5.127,-4.65,-12.29,2.07,1.80,-1.01,-1.91,
5.128,-4.53,-12.14,2.10,1.80,-1.01,-1.91,
5.132,-4.53,-12.14,2.10,1.75,-1.07,-1.78,
5.132,-4.36,-12.05,2.12,1.75,-1.07,-1.78,
5.137,-4.17,-12.01,2.19,1.75,-1.07,-1.78,
5.137,-4.17,-12.01,2.19,1.70,-1.12,-1.65,
5.142,-3.93,-11.97,2.18,1.70,-1.12,-1.65,
5.143,-3.93,-11.97,2.18,1.64,-1.16,-1.53,
5.147,-3.71,-11.95,2.24,1.64,-1.16,-1.53,
5.148,-3.71,-11.95,2.24,1.57,-1.19,-1.41,
5.152,-3.71,-11.95,2.24,1.50,-1.19,-1.29,
5.152,-3.50,-11.89,2.31,1.50,-1.19,-1.29,
5.166,-3.32,-11.85,2.36,1.50,-1.19,-1.29,
5.167,-3.32,-11.85,2.36,1.42,-1.18,-1.19,
5.167,-3.32,-11.85,2.36,1.34,-1.15,-1.09,
5.168,-3.12,-11.76,2.40,1.34,-1.15,-1.09,
5.169,-3.12,-11.76,2.40,1.25,-1.11,-1.01,
5.169,-2.97,-11.64,2.47,1.25,-1.11,-1.01,
5.171,-2.97,-11.64,2.47,1.15,-1.06,-0.93,
5.171,-2.85,-11.54,2.49,1.15,-1.06,-0.93,
5.212,-2.85,-11.54,2.49,1.05,-1.01,-0.86,
5.213,-2.78,-11.42,2.55,1.05,-1.01,-0.86,
5.247,-2.78,-11.42,2.55,0.95,-0.94,-0.80,
5.247,-2.69,-11.35,2.57,0.95,-0.94,-0.80,
5.248,-2.62,-11.30,2.65,0.95,-0.94,-0.80,
5.248,-2.62,-11.30,2.65,0.84,-0.87,-0.74,
5.249,-2.54,-11.27,2.67,0.84,-0.87,-0.74,
5.25,-2.54,-11.27,2.67,0.73,-0.80,-0.69,
5.25,-2.49,-11.22,2.81,0.73,-0.80,-0.69,
5.251,-2.49,-11.22,2.81,0.62,-0.73,-0.64,
5.251,-2.48,-11.25,2.89,0.62,-0.73,-0.64,
5.252,-2.48,-11.25,2.89,0.51,-0.65,-0.59,
5.252,-2.45,-11.24,3.03,0.51,-0.65,-0.59,
5.253,-2.45,-11.24,3.03,0.42,-0.57,-0.55,
5.253,-2.44,-11.31,3.13,0.42,-0.57,-0.55,
5.254,-2.44,-11.31,3.13,0.33,-0.49,-0.50,
5.255,-2.44,-11.31,3.13,0.25,-0.41,-0.46,
5.255,-2.38,-11.41,3.20,0.25,-0.41,-0.46,
5.256,-2.31,-11.64,3.20,0.25,-0.41,-0.46,
5.256,-2.31,-11.64,3.20,0.18,-0.34,-0.42,
5.257,-2.23,-11.90,3.14,0.18,-0.34,-0.42,
5.257,-2.23,-11.90,3.14,0.11,-0.27,-0.36,
5.258,-2.23,-11.90,3.14,0.06,-0.21,-0.31,
5.258,-2.13,-12.26,3.00,0.06,-0.21,-0.31,
5.259,-2.13,-12.26,3.00,0.00,-0.16,-0.24,
5.26,-2.07,-12.63,2.82,0.00,-0.16,-0.24,
5.261,-2.07,-12.63,2.82,-0.05,-0.11,-0.17,
5.261,-2.09,-12.96,2.60,-0.05,-0.11,-0.17,
5.264,-2.27,-13.23,2.44,-0.05,-0.11,-0.17,
5.264,-2.27,-13.23,2.44,-0.12,-0.06,-0.10,
5.265,-2.27,-13.23,2.44,-0.18,-0.01,-0.00,
5.266,-2.55,-13.39,2.28,-0.18,-0.01,-0.00,
5.266,-2.82,-13.56,2.14,-0.18,-0.01,-0.00,
5.266,-2.82,-13.56,2.14,-0.25,0.05,0.11,
5.267,-2.82,-13.56,2.14,-0.33,0.11,0.24,
5.267,-3.11,-13.65,2.01,-0.33,0.11,0.24,
5.267,-3.39,-13.70,1.94,-0.33,0.11,0.24,
5.268,-3.39,-13.70,1.94,-0.41,0.16,0.38,
5.269,-3.39,-13.70,1.94,-0.50,0.23,0.54,
5.27,-3.74,-13.72,1.89,-0.50,0.23,0.54,
5.278,-3.74,-13.72,1.89,-0.58,0.29,0.70,
5.279,-4.08,-13.77,1.85,-0.58,0.29,0.70,
5.279,-4.08,-13.77,1.85,-0.67,0.34,0.86,
5.28,-4.49,-13.78,1.80,-0.67,0.34,0.86,
5.284,-4.49,-13.78,1.80,-0.76,0.39,1.04,
5.284,-4.96,-13.70,1.73,-0.76,0.39,1.04,
5.288,-4.96,-13.70,1.73,-0.85,0.42,1.23,
5.289,-5.41,-13.55,1.70,-0.85,0.42,1.23,
5.297,-5.41,-13.55,1.70,-0.94,0.45,1.43,
5.298,-5.84,-13.35,1.72,-0.94,0.45,1.43,
5.298,-5.84,-13.35,1.72,-1.03,0.48,1.65,
5.299,-6.19,-13.15,1.74,-1.03,0.48,1.65,
5.302,-6.45,-12.88,1.87,-1.03,0.48,1.65,
5.303,-6.45,-12.88,1.87,-1.12,0.49,1.88,
5.328,-6.45,-12.88,1.87,-1.21,0.50,2.11,
5.329,-6.59,-12.61,2.06,-1.21,0.50,2.11,
5.329,-6.59,-12.61,2.06,-1.28,0.50,2.34,
5.33,-6.54,-12.29,2.28,-1.28,0.50,2.34,
5.33,-6.38,-12.03,2.55,-1.28,0.50,2.34,
5.33,-6.38,-12.03,2.55,-1.34,0.49,2.57,
5.331,-6.07,-11.83,2.78,-1.34,0.49,2.57,
5.331,-6.07,-11.83,2.78,-1.39,0.47,2.79,
5.332,-5.65,-11.70,2.98,-1.39,0.47,2.79,
5.332,-5.65,-11.70,2.98,-1.42,0.44,2.99,
5.333,-5.19,-11.55,3.10,-1.42,0.44,2.99,
5.333,-5.19,-11.55,3.10,-1.45,0.41,3.18,
5.337,-4.66,-11.49,3.19,-1.45,0.41,3.18,
5.337,-4.66,-11.49,3.19,-1.46,0.39,3.35,
5.341,-4.07,-11.37,3.32,-1.46,0.39,3.35,
5.342,-4.07,-11.37,3.32,-1.47,0.36,3.50,
5.347,-3.40,-11.21,3.44,-1.47,0.36,3.50,
5.347,-3.40,-11.21,3.44,-1.46,0.34,3.62,
5.352,-3.40,-11.21,3.44,-1.44,0.32,3.71,
5.352,-2.80,-11.04,3.58,-1.44,0.32,3.71,
5.356,-2.80,-11.04,3.58,-1.42,0.31,3.78,
5.357,-2.33,-10.90,3.71,-1.42,0.31,3.78,
5.362,-2.33,-10.90,3.71,-1.37,0.33,3.82,
5.362,-2.02,-10.74,3.82,-1.37,0.33,3.82,
5.366,-2.02,-10.74,3.82,-1.33,0.36,3.85,
5.366,-1.81,-10.62,3.89,-1.33,0.36,3.85,
5.371,-1.81,-10.62,3.89,-1.28,0.40,3.86,
5.371,-1.69,-10.55,3.88,-1.28,0.40,3.86,
5.382,-1.56,-10.54,3.84,-1.28,0.40,3.86,
5.383,-1.56,-10.54,3.84,-1.23,0.45,3.88,
5.383,-1.45,-10.61,3.73,-1.23,0.45,3.88,
5.384,-1.45,-10.61,3.73,-1.18,0.49,3.90,
5.386,-1.45,-10.61,3.73,-1.14,0.53,3.92,
5.386,-1.35,-10.77,3.55,-1.14,0.53,3.92,
5.422,-1.35,-10.77,3.55,-1.11,0.56,3.96,
5.423,-1.28,-11.03,3.38,-1.11,0.56,3.96,
5.423,-1.20,-11.33,3.23,-1.11,0.56,3.96,
5.424,-1.20,-11.33,3.23,-1.08,0.60,4.02,
5.425,-1.09,-11.65,3.14,-1.08,0.60,4.02,
5.426,-1.09,-11.65,3.14,-1.06,0.64,4.09,
5.426,-0.99,-11.96,3.11,-1.06,0.64,4.09,
5.427,-0.99,-11.96,3.11,-1.03,0.69,4.19,
5.427,-0.85,-12.25,3.12,-1.03,0.69,4.19,
5.428,-0.85,-12.25,3.12,-1.01,0.75,4.31,
5.428,-0.61,-12.52,3.19,-1.01,0.75,4.31,
5.429,-0.61,-12.52,3.19,-0.97,0.79,4.44,
5.429,-0.61,-12.52,3.19,-0.91,0.82,4.60,
5.429,-0.32,-12.81,3.31,-0.91,0.82,4.60,
5.462,0.02,-13.05,3.38,-0.91,0.82,4.60,
5.463,0.02,-13.05,3.38,-0.83,0.84,4.77,
5.463,0.42,-13.29,3.45,-0.83,0.84,4.77,
5.464,0.42,-13.29,3.45,-0.73,0.83,4.97,
5.464,0.87,-13.48,3.44,-0.73,0.83,4.97,
5.465,0.87,-13.48,3.44,-0.60,0.80,5.17,
5.465,1.41,-13.61,3.40,-0.60,0.80,5.17,
5.466,1.41,-13.61,3.40,-0.45,0.75,5.39,
5.466,2.07,-13.69,3.30,-0.45,0.75,5.39,
5.467,2.07,-13.69,3.30,-0.28,0.68,5.61,
5.467,2.88,-13.74,3.13,-0.28,0.68,5.61,
5.467,2.88,-13.74,3.13,-0.11,0.60,5.83,
5.468,2.88,-13.74,3.13,0.08,0.52,6.03,
5.468,3.77,-13.70,2.95,0.08,0.52,6.03,
5.469,4.64,-13.60,2.60,0.08,0.52,6.03,
5.469,4.64,-13.60,2.60,0.27,0.43,6.22,
5.469,5.53,-13.47,2.22,0.27,0.43,6.22,
5.47,5.53,-13.47,2.22,0.45,0.35,6.38,
5.47,5.53,-13.47,2.22,0.63,0.26,6.52,
5.471,6.55,-13.44,1.72,0.63,0.26,6.52,
5.473,7.51,-13.42,1.26,0.63,0.26,6.52,
5.474,7.51,-13.42,1.26,0.78,0.19,6.61,
5.483,8.32,-13.29,0.83,0.78,0.19,6.61,
5.484,8.32,-13.29,0.83,0.92,0.12,6.67,
5.484,8.32,-13.29,0.83,1.03,0.05,6.71,
5.485,9.04,-13.18,0.32,1.03,0.05,6.71,
5.488,9.04,-13.18,0.32,1.11,-0.03,6.73,
5.489,9.65,-13.07,-0.18,1.11,-0.03,6.73,
5.518,9.65,-13.07,-0.18,1.16,-0.10,6.74,
5.519,10.16,-12.94,-0.65,1.16,-0.10,6.74,
5.519,10.60,-12.78,-1.01,1.16,-0.10,6.74,
5.519,10.60,-12.78,-1.01,1.18,-0.15,6.76,
5.52,10.60,-12.78,-1.01,1.17,-0.18,6.77,
5.52,10.94,-12.58,-1.25,1.17,-0.18,6.77,
5.52,10.94,-12.58,-1.25,1.15,-0.20,6.79,
5.521,11.21,-12.38,-1.48,1.15,-0.20,6.79,
5.521,11.21,-12.38,-1.48,1.10,-0.20,6.81,
5.521,11.47,-12.19,-1.51,1.10,-0.20,6.81,
5.522,11.76,-12.01,-1.40,1.10,-0.20,6.81,
5.522,11.76,-12.01,-1.40,1.05,-0.20,6.84,
5.523,12.08,-11.85,-1.18,1.05,-0.20,6.84,
5.523,12.08,-11.85,-1.18,1.01,-0.18,6.88,
5.532,12.08,-11.85,-1.18,0.97,-0.16,6.93,
5.533,12.42,-11.72,-0.95,0.97,-0.16,6.93,
5.534,12.77,-11.58,-0.73,0.97,-0.16,6.93,
5.534,12.77,-11.58,-0.73,0.94,-0.15,6.97,
5.537,13.14,-11.48,-0.53,0.94,-0.15,6.97,
5.537,13.14,-11.48,-0.53,0.93,-0.15,7.02,
5.565,13.42,-11.28,-0.31,0.93,-0.15,7.02,
5.566,13.42,-11.28,-0.31,0.93,-0.15,7.08,
5.567,13.80,-11.11,-0.10,0.93,-0.15,7.08,
5.567,13.80,-11.11,-0.10,0.94,-0.14,7.13,
5.567,13.80,-11.11,-0.10,0.96,-0.13,7.18,
5.568,14.25,-10.89,0.12,0.96,-0.13,7.18,
5.568,14.76,-10.67,0.33,0.96,-0.13,7.18,
5.568,14.76,-10.67,0.33,1.00,-0.11,7.23,
5.569,15.26,-10.53,0.57,1.00,-0.11,7.23,
5.569,15.26,-10.53,0.57,1.06,-0.09,7.26,
5.57,15.71,-10.22,0.83,1.06,-0.09,7.26,
5.57,15.71,-10.22,0.83,1.14,-0.07,7.29,
5.571,16.09,-9.87,1.08,1.14,-0.07,7.29,
5.571,16.09,-9.87,1.08,1.24,-0.04,7.31,
5.577,16.51,-9.43,1.22,1.24,-0.04,7.31,
5.578,16.51,-9.43,1.22,1.37,-0.01,7.33,
5.581,16.96,-8.99,1.34,1.37,-0.01,7.33,
5.582,16.96,-8.99,1.34,1.51,0.02,7.34,
5.586,17.48,-8.46,1.42,1.51,0.02,7.34,
5.586,17.48,-8.46,1.42,1.66,0.04,7.34,
5.592,18.06,-7.82,1.44,1.66,0.04,7.34,
5.593,18.06,-7.82,1.44,1.84,0.06,7.31,
5.596,18.06,-7.82,1.44,2.02,0.10,7.27,
5.596,18.68,-7.10,1.38,2.02,0.10,7.27,
5.601,18.68,-7.10,1.38,2.21,0.14,7.18,
5.601,19.26,-6.31,1.18,2.21,0.14,7.18,
5.606,19.26,-6.31,1.18,2.39,0.19,7.05,
5.606,19.78,-5.50,0.98,2.39,0.19,7.05,
5.62,19.78,-5.50,0.98,2.56,0.25,6.88,
5.621,20.28,-4.72,0.74,2.56,0.25,6.88,
5.622,20.28,-4.72,0.74,2.73,0.31,6.68,
5.622,20.75,-3.98,0.42,2.73,0.31,6.68,
5.623,21.08,-3.27,0.10,2.73,0.31,6.68,
5.624,21.08,-3.27,0.10,2.89,0.38,6.45,
5.668,21.08,-3.27,0.10,3.04,0.47,6.20,
5.669,21.14,-2.51,-0.27,3.04,0.47,6.20,
5.669,21.08,-1.62,-0.67,3.04,0.47,6.20,
5.67,21.08,-1.62,-0.67,3.17,0.57,5.94,
5.67,21.08,-1.62,-0.67,3.27,0.69,5.66,
5.67,20.89,-0.79,-1.17,3.27,0.69,5.66,
5.671,20.89,-0.79,-1.17,3.35,0.82,5.38,
5.671,20.65,-0.00,-1.70,3.35,0.82,5.38,
5.672,20.31,0.69,-2.18,3.35,0.82,5.38,
5.672,20.31,0.69,-2.18,3.40,0.95,5.10,
5.672,19.90,1.33,-2.76,3.40,0.95,5.10,
5.673,19.90,1.33,-2.76,3.40,1.08,4.82,
5.673,19.51,1.83,-3.28,3.40,1.08,4.82,
5.673,19.51,1.83,-3.28,3.38,1.20,4.55,
5.674,19.51,1.83,-3.28,3.33,1.31,4.29,
5.674,19.11,2.28,-3.84,3.33,1.31,4.29,
5.675,18.73,2.75,-4.33,3.33,1.31,4.29,
5.675,18.73,2.75,-4.33,3.24,1.42,4.04,
5.709,18.38,3.17,-4.73,3.24,1.42,4.04,
5.709,18.38,3.17,-4.73,3.13,1.52,3.81,
5.71,18.04,3.54,-5.04,3.13,1.52,3.81,
5.71,18.04,3.54,-5.04,2.99,1.61,3.59,
5.71,18.04,3.54,-5.04,2.85,1.69,3.38,
5.711,17.72,3.90,-5.27,2.85,1.69,3.38,
5.711,17.72,3.90,-5.27,2.70,1.75,3.17,
5.712,17.42,4.19,-5.37,2.70,1.75,3.17,
5.712,17.42,4.19,-5.37,2.55,1.81,2.97,
5.712,17.13,4.41,-5.50,2.55,1.81,2.97,
5.713,17.13,4.41,-5.50,2.40,1.86,2.77,
5.713,16.84,4.62,-5.55,2.40,1.86,2.77,
5.714,16.54,4.76,-5.60,2.40,1.86,2.77,
5.714,16.54,4.76,-5.60,2.27,1.91,2.59,
5.714,16.54,4.76,-5.60,2.15,1.95,2.40,
5.715,16.25,4.91,-5.65,2.15,1.95,2.40,
5.715,16.25,4.91,-5.65,2.03,1.99,2.23,
5.715,15.98,5.02,-5.72,2.03,1.99,2.23,
5.716,15.98,5.02,-5.72,1.91,2.01,2.07,
5.716,15.73,5.08,-5.76,1.91,2.01,2.07,
5.718,15.47,5.16,-5.86,1.91,2.01,2.07,
5.719,15.47,5.16,-5.86,1.81,2.02,1.91,
5.722,15.19,5.27,-5.98,1.81,2.02,1.91,
5.723,15.19,5.27,-5.98,1.71,2.03,1.77,
5.727,14.90,5.30,-6.16,1.71,2.03,1.77,
5.727,14.90,5.30,-6.16,1.62,2.03,1.63,
5.732,14.90,5.30,-6.16,1.52,2.02,1.50,
5.733,14.54,5.32,-6.37,1.52,2.02,1.50,
5.737,14.22,5.33,-6.62,1.52,2.02,1.50,
5.737,14.22,5.33,-6.62,1.41,2.00,1.37,
5.748,14.01,5.34,-6.84,1.41,2.00,1.37,
5.749,14.01,5.34,-6.84,1.29,1.97,1.26,
5.75,13.73,5.33,-6.97,1.29,1.97,1.26,
5.75,13.73,5.33,-6.97,1.16,1.93,1.14,
5.751,13.73,5.33,-6.97,1.02,1.87,1.04,
5.752,13.50,5.34,-7.13,1.02,1.87,1.04,
5.756,13.30,5.37,-7.17,1.02,1.87,1.04,
5.756,13.30,5.37,-7.17,0.88,1.82,0.94,
5.786,13.30,5.37,-7.17,0.73,1.77,0.84,
5.787,13.10,5.38,-7.21,0.73,1.77,0.84,
5.788,13.10,5.38,-7.21,0.58,1.72,0.74,
5.788,12.92,5.38,-7.13,0.58,1.72,0.74,
5.788,12.77,5.41,-6.98,0.58,1.72,0.74,
5.789,12.77,5.41,-6.98,0.44,1.68,0.65,
5.789,12.77,5.41,-6.98,0.29,1.65,0.56,
5.789,12.60,5.47,-6.79,0.29,1.65,0.56,
5.789,12.50,5.50,-6.61,0.29,1.65,0.56,
5.79,12.50,5.50,-6.61,0.15,1.62,0.46,
5.79,12.38,5.55,-6.44,0.15,1.62,0.46,
5.79,12.38,5.55,-6.44,0.01,1.59,0.37,
5.791,12.38,5.55,-6.44,-0.12,1.57,0.27,
5.791,12.20,5.52,-6.18,-0.12,1.57,0.27,
5.795,12.20,5.52,-6.18,-0.24,1.54,0.18,
5.796,12.10,5.47,-6.00,-0.24,1.54,0.18,
5.8,11.95,5.50,-5.89,-0.24,1.54,0.18,
5.801,11.95,5.50,-5.89,-0.36,1.51,0.08,
5.805,11.95,5.50,-5.89,-0.47,1.48,-0.01,
5.806,11.78,5.50,-5.73,-0.47,1.48,-0.01,
5.816,11.78,5.50,-5.73,-0.57,1.45,-0.10,
5.817,11.59,5.43,-5.54,-0.57,1.45,-0.10,
5.817,11.44,5.42,-5.31,-0.57,1.45,-0.10,
5.818,11.44,5.42,-5.31,-0.67,1.42,-0.19,
5.819,11.29,5.41,-5.01,-0.67,1.42,-0.19,
5.82,11.29,5.41,-5.01,-0.76,1.38,-0.27,
5.825,11.14,5.36,-4.68,-0.76,1.38,-0.27,
5.825,11.14,5.36,-4.68,-0.83,1.34,-0.35,
5.85,11.14,5.36,-4.68,-0.89,1.30,-0.42,
5.851,11.06,5.34,-4.44,-0.89,1.30,-0.42,
5.851,10.90,5.34,-4.20,-0.89,1.30,-0.42,
5.851,10.90,5.34,-4.20,-0.93,1.26,-0.49,
5.852,10.90,5.34,-4.20,-0.96,1.21,-0.55,
5.852,10.77,5.29,-3.99,-0.96,1.21,-0.55,
5.853,10.77,5.29,-3.99,-0.98,1.16,-0.61,
5.853,10.75,5.33,-3.87,-0.98,1.16,-0.61,
5.854,10.75,5.33,-3.87,-0.99,1.11,-0.66,
5.854,10.83,5.33,-3.72,-0.99,1.11,-0.66,
5.854,10.83,5.33,-3.72,-1.00,1.06,-0.72,
5.855,11.03,5.34,-3.53,-1.00,1.06,-0.72,
5.86,11.27,5.29,-3.49,-1.00,1.06,-0.72,
5.861,11.27,5.29,-3.49,-1.00,1.01,-0.78,
5.864,11.46,5.10,-3.61,-1.00,1.01,-0.78,
5.865,11.46,5.10,-3.61,-1.00,0.96,-0.84,
5.869,11.46,5.10,-3.61,-1.02,0.92,-0.90,
5.869,11.51,4.89,-3.67,-1.02,0.92,-0.90,
5.873,11.51,4.89,-3.67,-1.05,0.90,-0.96,
5.874,11.62,4.70,-3.62,-1.05,0.90,-0.96,
5.879,11.62,4.70,-3.62,-1.09,0.88,-1.02,
5.88,11.73,4.55,-3.56,-1.09,0.88,-1.02,
5.883,11.73,4.55,-3.56,-1.13,0.88,-1.07,
5.884,11.86,4.45,-3.47,-1.13,0.88,-1.07,
5.888,11.86,4.45,-3.47,-1.16,0.87,-1.11,
5.889,11.87,4.33,-3.30,-1.16,0.87,-1.11,
5.893,11.87,4.33,-3.30,-1.17,0.87,-1.14,
5.894,11.95,4.28,-3.11,-1.17,0.87,-1.14,
5.899,12.09,4.20,-2.95,-1.17,0.87,-1.14,
5.9,12.09,4.20,-2.95,-1.18,0.86,-1.17,
5.903,12.09,4.20,-2.95,-1.18,0.82,-1.20,
5.903,12.30,4.09,-2.79,-1.18,0.82,-1.20,
5.908,12.30,4.09,-2.79,-1.18,0.76,-1.22,
5.909,12.58,3.98,-2.59,-1.18,0.76,-1.22,
5.953,12.88,3.89,-2.57,-1.18,0.76,-1.22,
5.953,12.88,3.89,-2.57,-1.17,0.69,-1.25,
5.954,13.02,3.92,-2.31,-1.17,0.69,-1.25,
5.955,13.02,3.92,-2.31,-1.16,0.61,-1.29,
5.956,13.04,3.99,-1.94,-1.16,0.61,-1.29,
5.956,13.04,3.99,-1.94,-1.14,0.54,-1.33,
5.957,13.04,3.99,-1.94,-1.11,0.47,-1.39,
5.958,13.14,4.07,-1.79,-1.11,0.47,-1.39,
5.958,13.29,4.14,-1.64,-1.11,0.47,-1.39,
5.959,13.29,4.14,-1.64,-1.06,0.39,-1.45,
5.96,13.59,4.25,-1.54,-1.06,0.39,-1.45,
5.96,13.59,4.25,-1.54,-1.00,0.30,-1.53,
5.961,13.59,4.25,-1.54,-0.95,0.17,-1.63,
5.962,13.91,4.33,-1.13,-0.95,0.17,-1.63,
5.962,14.28,4.40,-0.79,-0.95,0.17,-1.63,
5.963,14.28,4.40,-0.79,-0.87,-0.00,-1.74,
5.964,14.28,4.40,-0.79,-0.78,-0.22,-1.89,
5.964,14.59,4.41,-0.57,-0.78,-0.22,-1.89,
5.965,14.78,4.38,-0.24,-0.78,-0.22,-1.89,
5.966,14.78,4.38,-0.24,-0.68,-0.47,-2.05,
5.966,14.78,4.38,-0.24,-0.56,-0.72,-2.24,
5.967,15.09,4.21,0.04,-0.56,-0.72,-2.24,
5.968,15.09,4.21,0.04,-0.43,-0.99,-2.45,
5.968,15.49,3.92,0.02,-0.43,-0.99,-2.45,
5.971,15.49,3.92,0.02,-0.31,-1.29,-2.67,
5.972,15.90,3.54,-0.08,-0.31,-1.29,-2.67,
5.983,15.90,3.54,-0.08,-0.20,-1.59,-2.92,
5.984,16.19,3.07,-0.15,-0.20,-1.59,-2.92,
5.984,16.47,2.56,-0.29,-0.20,-1.59,-2.92,
5.985,16.47,2.56,-0.29,-0.12,-1.89,-3.17,
5.985,16.71,1.98,-0.62,-0.12,-1.89,-3.17,
5.986,16.71,1.98,-0.62,-0.06,-2.18,-3.44,
5.99,16.71,1.98,-0.62,-0.03,-2.46,-3.70,
5.991,16.97,1.29,-0.87,-0.03,-2.46,-3.70,
6.024,17.28,0.50,-1.09,-0.03,-2.46,-3.70,
6.026,17.28,0.50,-1.09,-0.03,-2.73,-3.97,
6.026,17.28,0.50,-1.09,-0.07,-2.98,-4.23,
6.027,17.49,-0.33,-1.23,-0.07,-2.98,-4.23,
6.028,17.60,-1.23,-1.27,-0.07,-2.98,-4.23,
6.028,17.60,-1.23,-1.27,-0.14,-3.23,-4.49,
6.029,17.78,-2.13,-1.16,-0.14,-3.23,-4.49,
6.029,17.78,-2.13,-1.16,-0.23,-3.44,-4.74,
6.03,18.01,-3.07,-0.99,-0.23,-3.44,-4.74,
6.03,18.01,-3.07,-0.99,-0.34,-3.64,-5.00,
6.031,18.27,-4.05,-0.66,-0.34,-3.64,-5.00,
6.031,18.27,-4.05,-0.66,-0.47,-3.83,-5.24,
6.032,18.27,-4.05,-0.66,-0.61,-4.00,-5.49,
6.032,18.57,-5.11,-0.53,-0.61,-4.00,-5.49,
6.033,18.57,-5.11,-0.53,-0.76,-4.14,-5.73,
6.033,18.87,-6.19,-0.52,-0.76,-4.14,-5.73,
6.035,18.87,-6.19,-0.52,-0.92,-4.24,-5.97,
6.036,19.18,-7.28,-0.46,-0.92,-4.24,-5.97,
6.039,19.18,-7.28,-0.46,-1.11,-4.30,-6.19,
6.04,19.43,-8.37,-0.45,-1.11,-4.30,-6.19,
6.051,19.43,-8.37,-0.45,-1.31,-4.33,-6.42,
6.052,19.69,-9.45,-0.34,-1.31,-4.33,-6.42,
6.053,19.82,-10.53,0.02,-1.31,-4.33,-6.42,
6.054,19.82,-10.53,0.02,-1.53,-4.33,-6.63,
6.055,19.82,-10.53,0.02,-1.75,-4.31,-6.85,
6.055,19.93,-11.63,0.31,-1.75,-4.31,-6.85,
6.058,19.98,-12.80,0.44,-1.75,-4.31,-6.85,
6.059,19.98,-12.80,0.44,-1.99,-4.26,-7.07,
6.085,19.98,-12.80,0.44,-2.21,-4.15,-7.27,
6.086,20.22,-14.06,0.72,-2.21,-4.15,-7.27,
6.087,20.22,-14.06,0.72,-2.45,-3.97,-7.47,
6.087,20.37,-15.41,1.34,-2.45,-3.97,-7.47,
6.088,20.56,-16.70,2.16,-2.45,-3.97,-7.47,
6.088,20.56,-16.70,2.16,-2.67,-3.73,-7.66,
6.089,20.56,-16.70,2.16,-2.85,-3.43,-7.85,
6.089,20.54,-17.88,2.99,-2.85,-3.43,-7.85,
6.09,20.16,-18.89,3.72,-2.85,-3.43,-7.85,
6.09,20.16,-18.89,3.72,-2.99,-3.09,-8.02,
6.091,19.44,-19.62,4.61,-2.99,-3.09,-8.02,
6.091,19.44,-19.62,4.61,-3.10,-2.69,-8.19,
6.093,18.56,-20.37,5.31,-3.10,-2.69,-8.19,
6.094,18.56,-20.37,5.31,-3.17,-2.24,-8.33,
6.098,17.65,-21.13,5.92,-3.17,-2.24,-8.33,
6.099,17.65,-21.13,5.92,-3.20,-1.74,-8.46,
6.103,17.65,-21.13,5.92,-3.18,-1.22,-8.57,
6.103,16.83,-21.85,6.49,-3.18,-1.22,-8.57,
6.107,16.83,-21.85,6.49,-3.12,-0.70,-8.65,
6.108,15.92,-22.52,7.05,-3.12,-0.70,-8.65,
6.112,15.92,-22.52,7.05,-2.99,-0.21,-8.72,
6.113,14.79,-22.92,7.46,-2.99,-0.21,-8.72,
6.117,14.79,-22.92,7.46,-2.82,0.27,-8.74,
6.118,13.43,-23.17,7.82,-2.82,0.27,-8.74,
6.122,13.43,-23.17,7.82,-2.59,0.71,-8.72,
6.122,11.99,-23.28,7.91,-2.59,0.71,-8.72,
6.134,11.99,-23.28,7.91,-2.32,1.12,-8.65,
6.135,10.56,-23.20,7.79,-2.32,1.12,-8.65,
6.135,9.15,-22.97,7.56,-2.32,1.12,-8.65,
6.136,9.15,-22.97,7.56,-2.03,1.47,-8.54,
6.136,9.15,-22.97,7.56,-1.72,1.79,-8.37,
6.137,7.79,-22.57,7.36,-1.72,1.79,-8.37,
6.141,6.59,-22.01,7.22,-1.72,1.79,-8.37,
6.142,6.59,-22.01,7.22,-1.40,2.04,-8.18,
6.173,6.59,-22.01,7.22,-1.07,2.22,-7.95,
6.174,5.63,-21.39,7.02,-1.07,2.22,-7.95,
6.174,5.63,-21.39,7.02,-0.73,2.35,-7.71,
6.175,4.77,-20.81,6.66,-0.73,2.35,-7.71,
6.214,4.77,-20.81,6.66,-0.39,2.43,-7.47,
6.214,4.12,-20.26,6.11,-0.39,2.43,-7.47,
6.215,4.12,-20.26,6.11,-0.07,2.46,-7.24,
6.216,3.47,-19.73,5.44,-0.07,2.46,-7.24,
6.216,3.47,-19.73,5.44,0.23,2.45,-7.00,
6.217,2.78,-19.17,4.86,0.23,2.45,-7.00,
6.217,2.13,-18.63,4.22,0.23,2.45,-7.00,
6.217,2.13,-18.63,4.22,0.51,2.40,-6.77,
6.218,2.13,-18.63,4.22,0.76,2.34,-6.54,
6.219,1.48,-18.19,3.59,0.76,2.34,-6.54,
6.219,0.90,-17.78,3.08,0.76,2.34,-6.54,
6.219,0.90,-17.78,3.08,0.97,2.23,-6.31,
6.22,0.90,-17.78,3.08,1.16,2.10,-6.09,
6.22,0.41,-17.48,2.55,1.16,2.10,-6.09,
6.221,0.41,-17.48,2.55,1.33,1.92,-5.87,
6.221,-0.06,-17.21,1.97,1.33,1.92,-5.87,
6.222,-0.06,-17.21,1.97,1.48,1.71,-5.66,
6.223,-0.51,-16.92,1.51,1.48,1.71,-5.66,
6.223,-0.94,-16.64,1.20,1.48,1.71,-5.66,
6.224,-0.94,-16.64,1.20,1.60,1.46,-5.45,
6.224,-1.34,-16.39,0.97,1.60,1.46,-5.45,
6.224,-1.34,-16.39,0.97,1.70,1.18,-5.25,
6.225,-1.34,-16.39,0.97,1.78,0.88,-5.06,
6.225,-1.72,-16.06,0.70,1.78,0.88,-5.06,
6.226,-1.72,-16.06,0.70,1.83,0.57,-4.87,
6.226,-2.01,-15.70,0.55,1.83,0.57,-4.87,
6.227,-2.22,-15.43,0.45,1.83,0.57,-4.87,
6.227,-2.22,-15.43,0.45,1.86,0.26,-4.69,
6.227,-2.38,-15.14,0.49,1.86,0.26,-4.69,
6.228,-2.38,-15.14,0.49,1.88,-0.04,-4.52,
6.23,-2.53,-14.89,0.58,1.88,-0.04,-4.52,
6.231,-2.53,-14.89,0.58,1.88,-0.33,-4.36,
6.235,-2.53,-14.89,0.58,1.87,-0.60,-4.21,
6.235,-2.68,-14.55,0.87,1.87,-0.60,-4.21,
6.239,-2.80,-14.27,1.18,1.87,-0.60,-4.21,
6.24,-2.80,-14.27,1.18,1.87,-0.85,-4.07,
6.244,-2.93,-13.99,1.45,1.87,-0.85,-4.07,
6.245,-2.93,-13.99,1.45,1.87,-1.08,-3.95,
6.249,-2.99,-13.71,1.65,1.87,-1.08,-3.95,
6.25,-2.99,-13.71,1.65,1.88,-1.27,-3.83,
6.254,-3.08,-13.48,1.83,1.88,-1.27,-3.83,
6.254,-3.08,-13.48,1.83,1.88,-1.44,-3.72,
6.259,-3.15,-13.29,2.01,1.88,-1.44,-3.72,
6.259,-3.15,-13.29,2.01,1.87,-1.59,-3.62,
6.267,-3.15,-13.29,2.01,1.86,-1.71,-3.53,
6.268,-3.17,-13.09,2.17,1.86,-1.71,-3.53,
6.269,-3.17,-13.09,2.17,1.84,-1.81,-3.45,
6.269,-3.27,-12.90,2.37,1.84,-1.81,-3.45,
6.274,-3.27,-12.90,2.37,1.81,-1.89,-3.37,
6.274,-3.34,-12.70,2.59,1.81,-1.89,-3.37,
6.308,-3.34,-12.70,2.59,1.79,-1.95,-3.29,
6.309,-3.35,-12.57,2.72,1.79,-1.95,-3.29,
6.31,-3.37,-12.50,2.84,1.79,-1.95,-3.29,
6.311,-3.37,-12.50,2.84,1.77,-1.99,-3.22,
6.311,-3.37,-12.50,2.84,1.74,-2.02,-3.15,
6.312,-3.33,-12.48,2.89,1.74,-2.02,-3.15,
6.313,-3.33,-12.48,2.89,1.71,-2.03,-3.09,
6.314,-3.26,-12.48,2.95,1.71,-2.03,-3.09,
6.315,-3.26,-12.48,2.95,1.67,-2.04,-3.03,
6.315,-3.26,-12.50,2.98,1.67,-2.04,-3.03,
6.316,-3.26,-12.50,2.98,1.62,-2.03,-2.97,
6.316,-3.29,-12.50,2.94,1.62,-2.03,-2.97,
6.317,-3.37,-12.46,2.90,1.62,-2.03,-2.97,
6.318,-3.37,-12.46,2.90,1.56,-2.00,-2.91,
6.318,-3.46,-12.44,2.89,1.56,-2.00,-2.91,
6.319,-3.46,-12.44,2.89,1.49,-1.95,-2.85,
6.32,-3.46,-12.44,2.89,1.41,-1.88,-2.79,
6.32,-3.60,-12.40,2.83,1.41,-1.88,-2.79,
6.323,-3.60,-12.40,2.83,1.32,-1.80,-2.73,
6.324,-3.77,-12.43,2.79,1.32,-1.80,-2.73,
6.33,-3.93,-12.44,2.80,1.32,-1.80,-2.73,
6.331,-3.93,-12.44,2.80,1.22,-1.71,-2.66,
6.332,-3.93,-12.44,2.80,1.12,-1.61,-2.59,
6.333,-4.12,-12.39,2.81,1.12,-1.61,-2.59,
6.337,-4.30,-12.43,2.80,1.12,-1.61,-2.59,
6.337,-4.30,-12.43,2.80,1.01,-1.51,-2.50,
6.341,-4.49,-12.41,2.76,1.01,-1.51,-2.50,
6.342,-4.49,-12.41,2.76,0.91,-1.40,-2.42,
6.347,-4.49,-12.41,2.76,0.80,-1.29,-2.33,
6.348,-4.69,-12.43,2.71,0.80,-1.29,-2.33,
6.352,-4.92,-12.41,2.69,0.80,-1.29,-2.33,
6.352,-4.92,-12.41,2.69,0.68,-1.17,-2.24,
6.356,-4.92,-12.41,2.69,0.56,-1.04,-2.14,
6.357,-5.18,-12.45,2.63,0.56,-1.04,-2.14,
6.369,-5.18,-12.45,2.63,0.44,-0.93,-2.04,
6.37,-5.46,-12.45,2.54,0.44,-0.93,-2.04,
6.371,-5.46,-12.45,2.54,0.32,-0.81,-1.92,
6.371,-5.73,-12.51,2.46,0.32,-0.81,-1.92,
6.372,-6.01,-12.52,2.38,0.32,-0.81,-1.92,
6.373,-6.01,-12.52,2.38,0.19,-0.70,-1.80,
6.376,-6.25,-12.52,2.34,0.19,-0.70,-1.80,
6.376,-6.25,-12.52,2.34,0.07,-0.62,-1.66,
6.41,-6.38,-12.50,2.30,0.07,-0.62,-1.66,
6.411,-6.38,-12.50,2.30,-0.05,-0.55,-1.52,
6.411,-6.54,-12.51,2.33,-0.05,-0.55,-1.52,
6.412,-6.54,-12.51,2.33,-0.17,-0.49,-1.37,
6.412,-6.61,-12.52,2.36,-0.17,-0.49,-1.37,
6.413,-6.61,-12.52,2.36,-0.28,-0.47,-1.22,
6.413,-6.61,-12.52,2.36,-0.39,-0.45,-1.06,
6.414,-6.63,-12.53,2.45,-0.39,-0.45,-1.06,
6.447,-6.58,-12.65,2.52,-0.39,-0.45,-1.06,
6.447,-6.58,-12.65,2.52,-0.47,-0.44,-0.90,
6.448,-6.45,-12.71,2.58,-0.47,-0.44,-0.90,
6.448,-6.45,-12.71,2.58,-0.55,-0.44,-0.75,
6.449,-6.28,-12.85,2.50,-0.55,-0.44,-0.75,
6.449,-6.28,-12.85,2.50,-0.63,-0.45,-0.60,
6.45,-6.28,-12.85,2.50,-0.69,-0.46,-0.47,
6.45,-6.05,-13.04,2.42,-0.69,-0.46,-0.47,
6.451,-6.05,-13.04,2.42,-0.75,-0.48,-0.34,
6.451,-5.85,-13.32,2.30,-0.75,-0.48,-0.34,
6.452,-5.85,-13.32,2.30,-0.82,-0.49,-0.22,
6.452,-5.73,-13.62,2.15,-0.82,-0.49,-0.22,
6.453,-5.72,-13.90,1.94,-0.82,-0.49,-0.22,
6.453,-5.72,-13.90,1.94,-0.89,-0.49,-0.10,
6.454,-5.84,-14.14,1.77,-0.89,-0.49,-0.10,
6.454,-5.84,-14.14,1.77,-0.97,-0.49,0.02,
6.455,-6.01,-14.28,1.68,-0.97,-0.49,0.02,
6.455,-6.01,-14.28,1.68,-1.06,-0.47,0.16,
6.456,-6.24,-14.30,1.58,-1.06,-0.47,0.16,
6.456,-6.24,-14.30,1.58,-1.15,-0.44,0.30,
6.457,-6.51,-14.31,1.56,-1.15,-0.44,0.30,
6.457,-6.51,-14.31,1.56,-1.25,-0.40,0.46,
6.458,-6.51,-14.31,1.56,-1.35,-0.37,0.62,
6.458,-6.77,-14.38,1.54,-1.35,-0.37,0.62,
6.459,-7.05,-14.41,1.53,-1.35,-0.37,0.62,
6.459,-7.05,-14.41,1.53,-1.45,-0.34,0.81,
6.463,-7.05,-14.41,1.53,-1.55,-0.31,1.02,
6.464,-7.34,-14.44,1.54,-1.55,-0.31,1.02,
6.468,-7.34,-14.44,1.54,-1.65,-0.30,1.25,
6.469,-7.64,-14.49,1.49,-1.65,-0.30,1.25,
6.473,-7.89,-14.49,1.49,-1.65,-0.30,1.25,
6.473,-7.89,-14.49,1.49,-1.76,-0.29,1.50,
6.484,-7.89,-14.49,1.49,-1.86,-0.28,1.78,
6.485,-8.04,-14.42,1.53,-1.86,-0.28,1.78,
6.485,-8.16,-14.37,1.61,-1.86,-0.28,1.78,
6.486,-8.16,-14.37,1.61,-1.97,-0.27,2.09,
6.489,-8.16,-14.37,1.61,-2.08,-0.25,2.43,
6.49,-8.06,-14.33,1.73,-2.08,-0.25,2.43,
6.493,-7.84,-14.28,1.91,-2.08,-0.25,2.43,
6.493,-7.84,-14.28,1.91,-2.18,-0.23,2.78,
6.519,-7.36,-14.22,2.06,-2.18,-0.23,2.78,
6.52,-7.36,-14.22,2.06,-2.28,-0.20,3.12,
6.52,-7.36,-14.22,2.06,-2.36,-0.17,3.46,
6.521,-6.86,-14.10,2.23,-2.36,-0.17,3.46,
6.521,-6.33,-13.99,2.42,-2.36,-0.17,3.46,
6.522,-6.33,-13.99,2.42,-2.44,-0.14,3.78,
6.522,-5.83,-13.83,2.73,-2.44,-0.14,3.78,
6.522,-5.83,-13.83,2.73,-2.51,-0.11,4.08,
6.523,-5.31,-13.68,3.03,-2.51,-0.11,4.08,
6.523,-5.31,-13.68,3.03,-2.56,-0.07,4.35,
6.524,-5.31,-13.68,3.03,-2.60,-0.01,4.61,
6.524,-4.75,-13.56,3.33,-2.60,-0.01,4.61,
6.528,-4.75,-13.56,3.33,-2.61,0.06,4.84,
6.528,-4.17,-13.45,3.65,-2.61,0.06,4.84,
6.532,-4.17,-13.45,3.65,-2.61,0.14,5.06,
6.533,-3.60,-13.33,3.95,-2.61,0.14,5.06,
6.537,-3.04,-13.19,4.28,-2.61,0.14,5.06,
6.537,-3.04,-13.19,4.28,-2.59,0.23,5.24,
6.542,-3.04,-13.19,4.28,-2.55,0.32,5.40,
6.542,-2.51,-13.12,4.63,-2.55,0.32,5.40,
6.548,-2.51,-13.12,4.63,-2.48,0.42,5.53,
6.549,-1.98,-13.00,4.98,-2.48,0.42,5.53,
6.552,-1.98,-13.00,4.98,-2.40,0.49,5.64,
6.553,-1.43,-12.93,5.17,-2.40,0.49,5.64,
6.557,-1.43,-12.93,5.17,-2.28,0.56,5.72,
6.557,-0.86,-12.95,5.38,-2.28,0.56,5.72,
6.562,-0.24,-13.04,5.48,-2.28,0.56,5.72,
6.564,-0.24,-13.04,5.48,-2.15,0.61,5.79,
6.566,0.41,-13.25,5.56,-2.15,0.61,5.79,
6.567,0.41,-13.25,5.56,-1.99,0.64,5.85,
6.571,0.41,-13.25,5.56,-1.81,0.67,5.90,
6.572,0.98,-13.43,5.61,-1.81,0.67,5.90,
6.576,1.54,-13.61,5.61,-1.81,0.67,5.90,
6.577,1.54,-13.61,5.61,-1.61,0.70,5.94,
6.581,1.54,-13.61,5.61,-1.38,0.72,5.98,
6.582,2.14,-13.83,5.71,-1.38,0.72,5.98,
6.586,2.14,-13.83,5.71,-1.12,0.74,6.03,
6.587,2.72,-14.05,5.71,-1.12,0.74,6.03,
6.591,2.72,-14.05,5.71,-0.82,0.76,6.06,
6.591,3.27,-14.23,5.68,-0.82,0.76,6.06,
6.606,3.83,-14.43,5.64,-0.82,0.76,6.06,
6.607,3.83,-14.43,5.64,-0.49,0.76,6.09,
6.608,3.83,-14.43,5.64,-0.12,0.73,6.13,
6.608,4.40,-14.63,5.50,-0.12,0.73,6.13,
6.609,4.40,-14.63,5.50,0.28,0.69,6.16,
6.61,5.11,-14.97,5.25,0.28,0.69,6.16,
6.65,5.11,-14.97,5.25,0.72,0.62,6.19,
6.651,6.12,-15.16,4.94,0.72,0.62,6.19,
6.651,7.19,-15.13,4.64,0.72,0.62,6.19,
6.652,7.19,-15.13,4.64,1.21,0.49,6.20,
6.652,7.19,-15.13,4.64,1.72,0.30,6.18,
6.653,8.44,-14.77,4.25,1.72,0.30,6.18,
6.653,8.44,-14.77,4.25,2.26,0.05,6.14,
6.654,9.70,-14.08,3.73,2.26,0.05,6.14,
6.654,9.70,-14.08,3.73,2.81,-0.25,6.06,
6.654,11.12,-13.23,3.12,2.81,-0.25,6.06,
6.655,11.12,-13.23,3.12,3.36,-0.59,5.92,
6.656,12.68,-12.30,2.30,3.36,-0.59,5.92,
6.656,12.68,-12.30,2.30,3.89,-0.94,5.72,
6.657,14.19,-11.34,1.42,3.89,-0.94,5.72,
6.694,14.19,-11.34,1.42,4.39,-1.31,5.45,
6.695,15.21,-10.59,0.55,4.39,-1.31,5.45,
6.695,15.44,-10.12,-0.42,4.39,-1.31,5.45,
6.696,15.44,-10.12,-0.42,4.86,-1.68,5.10,
6.697,15.44,-10.12,-0.42,5.25,-2.04,4.72,
6.697,15.03,-9.83,-1.59,5.25,-2.04,4.72,
6.698,14.13,-9.73,-3.02,5.25,-2.04,4.72,
6.698,14.13,-9.73,-3.02,5.52,-2.39,4.31,
6.699,12.88,-9.56,-4.42,5.52,-2.39,4.31,
6.699,12.88,-9.56,-4.42,5.65,-2.78,3.95,
6.7,11.69,-9.40,-6.08,5.65,-2.78,3.95,
6.7,11.69,-9.40,-6.08,5.61,-3.18,3.66,
6.701,10.22,-9.21,-7.58,5.61,-3.18,3.66,
6.701,10.22,-9.21,-7.58,5.41,-3.56,3.47,
6.702,10.22,-9.21,-7.58,5.05,-3.86,3.41,
6.702,8.90,-8.88,-8.66,5.05,-3.86,3.41,
6.703,7.94,-8.48,-9.15,5.05,-3.86,3.41,
6.703,7.94,-8.48,-9.15,4.56,-4.04,3.50,
6.704,7.44,-8.17,-9.18,4.56,-4.04,3.50,
6.704,7.44,-8.17,-9.18,4.01,-4.08,3.71,
6.705,7.44,-8.17,-9.18,3.44,-3.95,4.02,
6.706,7.49,-7.86,-8.74,3.44,-3.95,4.02,
6.706,8.10,-7.55,-7.95,3.44,-3.95,4.02,
6.706,8.10,-7.55,-7.95,2.87,-3.67,4.40,
6.706,8.10,-7.55,-7.95,2.33,-3.22,4.80,
6.707,9.10,-7.14,-6.97,2.33,-3.22,4.80,
6.709,9.10,-7.14,-6.97,1.82,-2.59,5.18,
6.71,10.31,-6.69,-6.07,1.82,-2.59,5.18,
6.719,10.31,-6.69,-6.07,1.33,-1.83,5.52,
6.72,11.59,-6.35,-5.38,1.33,-1.83,5.52,
6.721,12.78,-6.12,-4.95,1.33,-1.83,5.52,
6.721,12.78,-6.12,-4.95,0.87,-1.00,5.81,
6.723,13.80,-5.87,-4.77,0.87,-1.00,5.81,
6.723,13.80,-5.87,-4.77,0.40,-0.14,6.06,
6.727,13.80,-5.87,-4.77,-0.08,0.73,6.27,
6.727,14.82,-5.59,-4.62,-0.08,0.73,6.27,
6.755,14.82,-5.59,-4.62,-0.56,1.58,6.42,
6.756,15.71,-5.23,-4.34,-0.56,1.58,6.42,
6.756,15.71,-5.23,-4.34,-1.03,2.38,6.51,
6.757,16.39,-4.80,-3.88,-1.03,2.38,6.51,
6.757,16.79,-4.25,-3.36,-1.03,2.38,6.51,
6.757,16.79,-4.25,-3.36,-1.47,3.13,6.54,
6.758,16.79,-4.25,-3.36,-1.87,3.81,6.55,
6.758,16.83,-3.61,-2.77,-1.87,3.81,6.55,
6.758,16.66,-2.96,-2.37,-1.87,3.81,6.55,
6.759,16.66,-2.96,-2.37,-2.24,4.39,6.53,
6.759,16.66,-2.96,-2.37,-2.57,4.87,6.51,
6.759,16.45,-2.49,-2.06,-2.57,4.87,6.51,
6.786,16.19,-2.10,-1.75,-2.57,4.87,6.51,
6.787,16.19,-2.10,-1.75,-2.88,5.25,6.49,
6.787,16.11,-1.71,-1.35,-2.88,5.25,6.49,
6.787,16.11,-1.71,-1.35,-3.15,5.55,6.46,
6.788,16.11,-1.71,-1.35,-3.37,5.76,6.39,
6.788,15.96,-1.25,-0.95,-3.37,5.76,6.39,
6.788,15.55,-0.77,-0.53,-3.37,5.76,6.39,
6.789,15.55,-0.77,-0.53,-3.55,5.88,6.31,
6.789,15.55,-0.77,-0.53,-3.69,5.92,6.22,
6.789,15.07,-0.34,-0.14,-3.69,5.92,6.22,
6.79,14.51,0.10,0.26,-3.69,5.92,6.22,
6.791,14.51,0.10,0.26,-3.78,5.87,6.14,
6.791,14.07,0.47,0.70,-3.78,5.87,6.14,
6.791,14.07,0.47,0.70,-3.84,5.74,6.06,
6.796,13.82,0.75,1.17,-3.84,5.74,6.06,
6.797,13.82,0.75,1.17,-3.85,5.53,5.99,
6.801,13.70,0.91,1.70,-3.85,5.53,5.99,
6.801,13.70,0.91,1.70,-3.81,5.25,5.92,
6.805,13.81,1.14,2.24,-3.81,5.25,5.92,
6.806,13.81,1.14,2.24,-3.73,4.89,5.86,
6.81,13.81,1.14,2.24,-3.59,4.45,5.78,
6.81,14.21,1.54,2.88,-3.59,4.45,5.78,
6.819,14.21,1.54,2.88,-3.39,3.93,5.68,
6.82,14.81,2.09,3.63,-3.39,3.93,5.68,
6.821,14.81,2.09,3.63,-3.12,3.34,5.55,
6.821,15.58,2.83,4.41,-3.12,3.34,5.55,
6.824,15.58,2.83,4.41,-2.76,2.71,5.36,
6.825,16.43,3.69,5.13,-2.76,2.71,5.36,
6.849,16.43,3.69,5.13,-2.33,2.06,5.12,
6.85,17.27,4.62,5.85,-2.33,2.06,5.12,
6.851,17.91,5.55,6.55,-2.33,2.06,5.12,
6.851,17.91,5.55,6.55,-1.81,1.40,4.83,
6.851,17.91,5.55,6.55,-1.23,0.77,4.50,
6.852,18.12,6.48,7.19,-1.23,0.77,4.50,
6.852,18.12,6.48,7.19,-0.59,0.18,4.15,
6.853,18.00,7.30,7.63,-0.59,0.18,4.15,
6.853,17.65,7.90,7.66,-0.59,0.18,4.15,
6.854,17.65,7.90,7.66,0.08,-0.35,3.79,
6.854,17.15,8.26,7.27,0.08,-0.35,3.79,
6.854,17.15,8.26,7.27,0.74,-0.81,3.41,
6.859,17.15,8.26,7.27,1.37,-1.17,3.04,
6.859,16.59,8.47,6.55,1.37,-1.17,3.04,
6.863,15.92,8.54,5.65,1.37,-1.17,3.04,
6.864,15.92,8.54,5.65,1.93,-1.48,2.69,
6.869,15.92,8.54,5.65,2.40,-1.72,2.38,
6.87,15.26,8.56,4.56,2.40,-1.72,2.38,
6.873,15.26,8.56,4.56,2.77,-1.88,2.11,
6.874,14.65,8.53,3.43,2.77,-1.88,2.11,
6.878,14.65,8.53,3.43,3.05,-1.96,1.88,
6.879,14.10,8.51,2.27,3.05,-1.96,1.88,
6.883,13.64,8.49,1.24,3.05,-1.96,1.88,
6.884,13.64,8.49,1.24,3.23,-1.96,1.69,
6.924,13.64,8.49,1.24,3.32,-1.89,1.53,
6.925,13.21,8.51,0.18,3.32,-1.89,1.53,
6.925,13.37,8.43,-1.16,3.32,-1.89,1.53,
6.926,13.37,8.43,-1.16,3.32,-1.76,1.39,
6.926,12.81,8.63,-2.03,3.32,-1.76,1.39,
6.927,12.81,8.63,-2.03,3.24,-1.61,1.27,
6.927,12.12,8.87,-2.49,3.24,-1.61,1.27,
6.928,12.12,8.87,-2.49,3.08,-1.41,1.16,
6.929,11.64,9.14,-2.94,3.08,-1.41,1.16,
6.929,11.64,9.14,-2.94,2.89,-1.16,1.09,
6.93,11.64,9.14,-2.94,2.67,-0.89,1.04,
6.93,11.36,9.38,-3.39,2.67,-0.89,1.04,
6.93,11.17,9.50,-3.88,2.67,-0.89,1.04,
6.931,11.17,9.50,-3.88,2.42,-0.63,1.02,
6.931,10.78,9.51,-4.16,2.42,-0.63,1.02,
6.932,10.78,9.51,-4.16,2.15,-0.36,1.00,
6.932,10.55,9.50,-4.39,2.15,-0.36,1.00,
6.933,10.55,9.50,-4.39,1.87,-0.09,1.01,
6.933,10.55,9.50,-4.39,1.59,0.18,1.03,
6.934,10.54,9.41,-4.61,1.59,0.18,1.03,
6.943,10.55,9.34,-4.84,1.59,0.18,1.03,
6.944,10.55,9.34,-4.84,1.30,0.42,1.04,
6.944,10.53,9.23,-4.92,1.30,0.42,1.04,
6.944,10.53,9.23,-4.92,1.02,0.65,1.07,
6.987,10.53,9.23,-4.92,0.73,0.86,1.08,
6.988,10.42,9.17,-4.80,0.73,0.86,1.08,
6.989,10.45,9.18,-4.62,0.73,0.86,1.08,
6.989,10.45,9.18,-4.62,0.47,1.05,1.10,
6.99,10.45,9.18,-4.62,0.23,1.21,1.13,
6.991,10.59,9.21,-4.41,0.23,1.21,1.13,
6.991,10.59,9.21,-4.41,0.00,1.35,1.14,
6.994,10.80,9.35,-4.17,0.00,1.35,1.14,
6.995,11.16,9.47,-3.92,0.00,1.35,1.14,
6.997,11.16,9.47,-3.92,-0.20,1.46,1.14,
6.999,11.16,9.47,-3.92,-0.37,1.55,1.12,
6.999,11.60,9.57,-3.65,-0.37,1.55,1.12,
7.0,11.60,9.57,-3.65,-0.52,1.59,1.07,
7.001,11.94,9.65,-3.34,-0.52,1.59,1.07,
7.001,11.94,9.65,-3.34,-0.62,1.60,1.00,
7.001,12.24,9.74,-3.04,-0.62,1.60,1.00,
7.002,12.24,9.74,-3.04,-0.70,1.59,0.91,
7.002,12.43,9.91,-2.68,-0.70,1.59,0.91,
7.003,12.63,10.03,-2.34,-0.70,1.59,0.91,
7.003,12.63,10.03,-2.34,-0.74,1.57,0.80,
7.003,12.84,10.19,-1.94,-0.74,1.57,0.80,
7.004,12.84,10.19,-1.94,-0.76,1.52,0.68,
7.004,13.12,10.30,-1.53,-0.76,1.52,0.68,
7.005,13.12,10.30,-1.53,-0.74,1.46,0.54,
7.005,13.12,10.30,-1.53,-0.69,1.37,0.39,
7.006,13.40,10.41,-1.12,-0.69,1.37,0.39,
7.01,13.61,10.46,-0.85,-0.69,1.37,0.39,
7.011,13.61,10.46,-0.85,-0.62,1.26,0.22,
7.02,13.61,10.46,-0.85,-0.53,1.15,0.05,
7.021,13.71,10.41,-0.72,-0.53,1.15,0.05,
7.021,13.71,10.41,-0.72,-0.42,1.04,-0.13,
7.022,13.79,10.27,-0.74,-0.42,1.04,-0.13,
7.024,13.79,10.27,-0.74,-0.30,0.92,-0.30,
7.025,13.90,10.05,-0.87,-0.30,0.92,-0.30,
7.059,13.90,10.05,-0.87,-0.20,0.78,-0.46,
7.06,14.03,9.80,-1.07,-0.20,0.78,-0.46,
7.061,14.03,9.80,-1.07,-0.10,0.62,-0.61,
7.061,14.18,9.57,-1.17,-0.10,0.62,-0.61,
7.061,14.18,9.57,-1.17,-0.01,0.44,-0.75,
7.062,14.34,9.39,-1.11,-0.01,0.44,-0.75,
7.065,14.34,9.39,-1.11,0.09,0.24,-0.88,
7.065,14.51,9.23,-1.07,0.09,0.24,-0.88,
7.065,14.51,9.23,-1.07,0.18,0.02,-1.01,
7.066,14.69,9.10,-0.95,0.18,0.02,-1.01,
7.066,14.91,9.00,-0.83,0.18,0.02,-1.01,
7.066,14.91,9.00,-0.83,0.29,-0.20,-1.13,
7.067,15.17,8.88,-0.66,0.29,-0.20,-1.13,
7.067,15.17,8.88,-0.66,0.40,-0.43,-1.26,
7.068,15.44,8.74,-0.55,0.40,-0.43,-1.26,
7.069,15.44,8.74,-0.55,0.52,-0.65,-1.39,
7.069,15.80,8.58,-0.47,0.52,-0.65,-1.39,
7.07,15.80,8.58,-0.47,0.64,-0.86,-1.53,
7.073,15.80,8.58,-0.47,0.75,-1.05,-1.69,
7.075,16.11,8.39,-0.27,0.75,-1.05,-1.69,
7.079,16.11,8.39,-0.27,0.85,-1.23,-1.88,
7.081,16.44,8.16,-0.19,0.85,-1.23,-1.88,
7.083,16.72,7.82,-0.22,0.85,-1.23,-1.88,
7.084,16.72,7.82,-0.22,0.94,-1.40,-2.08,
7.088,16.72,7.82,-0.22,1.01,-1.55,-2.32,
7.089,16.94,7.42,-0.34,1.01,-1.55,-2.32,
7.093,17.08,6.89,-0.49,1.01,-1.55,-2.32,
7.093,17.08,6.89,-0.49,1.06,-1.68,-2.56,
7.1,17.15,6.36,-0.72,1.06,-1.68,-2.56,
7.101,17.15,6.36,-0.72,1.09,-1.77,-2.82,
7.102,17.17,5.74,-1.03,1.09,-1.77,-2.82,
7.103,17.17,5.74,-1.03,1.09,-1.84,-3.08,
7.107,17.17,5.74,-1.03,1.06,-1.87,-3.35,
7.108,17.22,5.07,-1.23,1.06,-1.87,-3.35,
7.114,17.22,5.07,-1.23,1.00,-1.87,-3.62,
7.114,17.30,4.33,-1.56,1.00,-1.87,-3.62,
7.117,17.33,3.41,-1.86,1.00,-1.87,-3.62,
7.118,17.33,3.41,-1.86,0.90,-1.85,-3.88,
7.122,17.29,2.41,-2.18,0.90,-1.85,-3.88,
7.123,17.29,2.41,-2.18,0.76,-1.82,-4.14,
7.127,17.23,1.37,-2.51,0.76,-1.82,-4.14,
7.127,17.23,1.37,-2.51,0.58,-1.79,-4.37,
7.158,17.06,0.36,-3.00,0.58,-1.79,-4.37,
7.158,17.06,0.36,-3.00,0.38,-1.74,-4.58,
7.159,17.01,-0.67,-3.42,0.38,-1.74,-4.58,
7.16,17.01,-0.67,-3.42,0.13,-1.68,-4.76,
7.16,16.99,-1.74,-3.60,0.13,-1.68,-4.76,
7.161,16.99,-1.74,-3.60,-0.15,-1.61,-4.92,
7.162,16.99,-1.74,-3.60,-0.47,-1.52,-5.06,
7.163,17.07,-2.79,-3.61,-0.47,-1.52,-5.06,
7.164,17.15,-3.81,-3.50,-0.47,-1.52,-5.06,
7.165,17.15,-3.81,-3.50,-0.80,-1.43,-5.18,
7.165,17.11,-4.84,-3.07,-0.80,-1.43,-5.18,
7.166,17.11,-4.84,-3.07,-1.12,-1.32,-5.28,
7.167,17.03,-5.86,-2.56,-1.12,-1.32,-5.28,
7.168,17.03,-5.86,-2.56,-1.42,-1.19,-5.37,
7.168,17.03,-5.86,-2.56,-1.67,-1.05,-5.45,
7.169,17.05,-6.80,-2.11,-1.67,-1.05,-5.45,
7.178,17.10,-7.68,-1.31,-1.67,-1.05,-5.45,
7.18,17.10,-7.68,-1.31,-1.90,-0.92,-5.50,
7.181,17.29,-8.47,-0.69,-1.90,-0.92,-5.50,
7.181,17.29,-8.47,-0.69,-2.07,-0.79,-5.53,
7.182,17.29,-8.47,-0.69,-2.19,-0.66,-5.56,
7.182,17.50,-9.19,-0.13,-2.19,-0.66,-5.56,
7.185,17.50,-9.19,-0.13,-2.26,-0.54,-5.58,
7.186,17.77,-9.87,0.27,-2.26,-0.54,-5.58,
7.19,17.77,-9.87,0.27,-2.31,-0.39,-5.60,
7.191,18.04,-10.43,0.71,-2.31,-0.39,-5.60,
7.195,18.04,-10.43,0.71,-2.31,-0.25,-5.64,
7.196,18.56,-10.94,1.05,-2.31,-0.25,-5.64,
7.212,19.14,-11.44,1.37,-2.31,-0.25,-5.64,
7.213,19.14,-11.44,1.37,-2.29,-0.10,-5.70,
7.213,19.14,-11.44,1.37,-2.21,0.04,-5.80,
7.214,19.65,-12.00,1.78,-2.21,0.04,-5.80,
7.214,19.65,-12.00,1.78,-2.11,0.16,-5.92,
