
time,ax,ay,az,wx,wy,wz,
0.001,-0.56,0.31,0.40,1.01,-1.03,0.09,
0.002,-0.73,0.17,0.42,1.01,-1.03,0.09,
0.002,-0.73,0.17,0.42,0.98,-1.01,0.08,
0.002,-1.00,0.01,0.36,0.98,-1.01,0.08,
0.007,-1.00,0.01,0.36,0.96,-0.98,0.08,
0.008,-1.21,-0.12,0.33,0.96,-0.98,0.08,
0.012,-1.39,-0.28,0.27,0.96,-0.98,0.08,
0.013,-1.39,-0.28,0.27,0.95,-0.95,0.09,
0.016,-1.39,-0.28,0.27,0.94,-0.92,0.11,
0.017,-1.55,-0.45,0.22,0.94,-0.92,0.11,
0.061,-1.68,-0.65,0.20,0.94,-0.92,0.11,
0.061,-1.68,-0.65,0.20,0.94,-0.90,0.14,
0.062,-1.68,-0.65,0.20,0.96,-0.88,0.18,
0.062,-1.85,-0.81,0.19,0.96,-0.88,0.18,
0.062,-1.85,-0.81,0.19,0.99,-0.86,0.23,
0.063,-1.97,-1.00,0.20,0.99,-0.86,0.23,
0.063,-1.97,-1.00,0.20,1.04,-0.85,0.28,
0.063,-2.00,-1.13,0.17,1.04,-0.85,0.28,
0.064,-2.00,-1.13,0.17,1.11,-0.86,0.34,
0.064,-2.01,-1.16,0.04,1.11,-0.86,0.34,
0.064,-2.01,-1.16,0.04,1.19,-0.87,0.39,
0.065,-1.98,-1.20,-0.17,1.19,-0.87,0.39,
0.065,-1.98,-1.20,-0.17,1.27,-0.89,0.44,
0.066,-1.95,-1.26,-0.47,1.27,-0.89,0.44,
0.066,-1.95,-1.26,-0.47,1.34,-0.92,0.49,
0.066,-1.90,-1.27,-0.79,1.34,-0.92,0.49,
0.067,-1.90,-1.27,-0.79,1.41,-0.94,0.52,
0.067,-1.83,-1.27,-1.22,1.41,-0.94,0.52,
0.067,-1.83,-1.27,-1.22,1.45,-0.96,0.55,
0.068,-1.72,-1.29,-1.62,1.45,-0.96,0.55,
0.081,-1.72,-1.29,-1.62,1.48,-0.96,0.57,
0.082,-1.56,-1.31,-2.11,1.48,-0.96,0.57,
0.082,-1.33,-1.28,-2.57,1.48,-0.96,0.57,
0.083,-1.33,-1.28,-2.57,1.49,-0.95,0.58,
0.083,-1.33,-1.28,-2.57,1.46,-0.93,0.59,
0.083,-1.06,-1.22,-3.13,1.46,-0.93,0.59,
0.123,-0.85,-1.18,-3.74,1.46,-0.93,0.59,
0.124,-0.85,-1.18,-3.74,1.39,-0.88,0.57,
0.124,-0.85,-1.18,-3.74,1.28,-0.81,0.55,
0.124,-0.71,-1.11,-4.33,1.28,-0.81,0.55,
0.125,-0.57,-1.13,-4.83,1.28,-0.81,0.55,
0.125,-0.57,-1.13,-4.83,1.12,-0.73,0.53,
0.125,-0.45,-1.15,-5.08,1.12,-0.73,0.53,
0.126,-0.45,-1.15,-5.08,0.92,-0.65,0.51,
0.126,-0.45,-1.15,-5.08,0.69,-0.53,0.49,
0.126,-0.36,-1.18,-5.16,0.69,-0.53,0.49,
0.127,-0.31,-1.26,-5.02,0.69,-0.53,0.49,
0.127,-0.31,-1.26,-5.02,0.45,-0.41,0.47,
0.127,-0.31,-1.26,-5.02,0.21,-0.27,0.44,
0.128,-0.23,-1.36,-4.69,0.21,-0.27,0.44,
0.128,-0.23,-1.36,-4.69,-0.02,-0.14,0.41,
0.128,0.11,-1.51,-4.38,-0.02,-0.14,0.41,
0.129,-0.23,-1.62,-3.58,-0.02,-0.14,0.41,
0.129,-0.23,-1.62,-3.58,-0.21,-0.02,0.37,
0.145,-0.72,-1.65,-2.50,-0.21,-0.02,0.37,
0.145,-0.72,-1.65,-2.50,-0.36,0.10,0.34,
0.145,-0.92,-1.72,-2.01,-0.36,0.10,0.34,
0.146,-0.92,-1.72,-2.01,-0.44,0.23,0.32,
0.146,-0.99,-1.90,-1.67,-0.44,0.23,0.32,
0.146,-0.99,-1.90,-1.67,-0.47,0.32,0.32,
0.155,-0.99,-1.90,-1.67,-0.48,0.41,0.33,
0.156,-1.11,-2.09,-1.39,-0.48,0.41,0.33,
0.156,-1.11,-2.09,-1.39,-0.45,0.47,0.34,
0.156,-1.28,-2.23,-1.10,-0.45,0.47,0.34,
0.156,-1.47,-2.33,-1.01,-0.45,0.47,0.34,
0.157,-1.47,-2.33,-1.01,-0.41,0.52,0.36,
0.162,-1.57,-2.42,-1.04,-0.41,0.52,0.36,
0.162,-1.57,-2.42,-1.04,-0.36,0.57,0.38,
0.163,-1.65,-2.52,-1.09,-0.36,0.57,0.38,
0.163,-1.65,-2.52,-1.09,-0.31,0.63,0.40,
0.168,-1.65,-2.52,-1.09,-0.26,0.70,0.43,
0.168,-1.70,-2.62,-1.20,-0.26,0.70,0.43,
0.181,-1.71,-2.72,-1.31,-0.26,0.70,0.43,
0.182,-1.71,-2.72,-1.31,-0.21,0.79,0.47,
0.182,-1.66,-2.83,-1.59,-0.21,0.79,0.47,
0.183,-1.66,-2.83,-1.59,-0.16,0.88,0.51,
0.183,-1.69,-2.96,-1.98,-0.16,0.88,0.51,
0.183,-1.69,-2.96,-1.98,-0.11,0.95,0.55,
0.187,-1.97,-3.06,-2.28,-0.11,0.95,0.55,
0.188,-1.97,-3.06,-2.28,-0.09,1.01,0.59,
0.192,-2.17,-3.08,-2.72,-0.09,1.01,0.59,
0.193,-2.17,-3.08,-2.72,-0.09,1.08,0.65,
0.197,-2.17,-3.08,-2.72,-0.10,1.15,0.72,
0.197,-2.08,-3.11,-3.23,-0.10,1.15,0.72,
0.203,-1.81,-3.09,-3.75,-0.10,1.15,0.72,
0.203,-1.81,-3.09,-3.75,-0.13,1.20,0.79,
0.224,-1.41,-3.00,-4.22,-0.13,1.20,0.79,
0.225,-1.41,-3.00,-4.22,-0.19,1.24,0.85,
0.226,-1.41,-3.00,-4.22,-0.27,1.24,0.89,
0.226,-1.03,-2.87,-4.63,-0.27,1.24,0.89,
0.226,-0.61,-2.73,-4.97,-0.27,1.24,0.89,
0.227,-0.61,-2.73,-4.97,-0.38,1.21,0.92,
0.227,-0.16,-2.62,-5.26,-0.38,1.21,0.92,
0.227,-0.16,-2.62,-5.26,-0.52,1.14,0.93,
0.228,0.32,-2.45,-5.44,-0.52,1.14,0.93,
0.228,0.32,-2.45,-5.44,-0.69,1.05,0.92,
0.234,0.79,-2.29,-5.45,-0.69,1.05,0.92,
0.234,0.79,-2.29,-5.45,-0.88,0.95,0.89,
0.236,1.19,-2.14,-5.29,-0.88,0.95,0.89,
0.236,1.19,-2.14,-5.29,-1.09,0.85,0.84,
0.245,1.50,-2.06,-4.92,-1.09,0.85,0.84,
0.246,1.50,-2.06,-4.92,-1.30,0.75,0.76,
0.246,1.50,-2.06,-4.92,-1.50,0.64,0.68,
0.247,1.72,-2.06,-4.36,-1.50,0.64,0.68,
0.251,1.72,-2.06,-4.36,-1.69,0.51,0.59,
0.251,2.02,-2.04,-3.64,-1.69,0.51,0.59,
0.291,2.25,-2.08,-2.84,-1.69,0.51,0.59,
0.291,2.25,-2.08,-2.84,-1.85,0.38,0.48,
0.292,2.49,-2.13,-2.03,-1.85,0.38,0.48,
0.292,2.49,-2.13,-2.03,-1.99,0.24,0.38,
0.292,2.49,-2.13,-2.03,-2.10,0.12,0.26,
0.293,2.66,-2.26,-1.19,-2.10,0.12,0.26,
0.293,2.66,-2.26,-1.19,-2.17,0.00,0.16,
0.294,2.74,-2.49,-0.39,-2.17,0.00,0.16,
0.294,2.74,-2.49,-0.39,-2.22,-0.10,0.06,
0.294,2.63,-2.77,0.25,-2.22,-0.10,0.06,
0.295,2.63,-2.77,0.25,-2.23,-0.19,-0.04,
0.295,2.30,-3.05,0.86,-2.23,-0.19,-0.04,
0.296,1.86,-3.32,1.41,-2.23,-0.19,-0.04,
0.296,1.86,-3.32,1.41,-2.22,-0.28,-0.11,
0.296,1.35,-3.58,1.89,-2.22,-0.28,-0.11,
0.297,1.35,-3.58,1.89,-2.17,-0.37,-0.17,
0.297,1.35,-3.58,1.89,-2.10,-0.46,-0.19,
0.298,0.79,-3.79,2.25,-2.10,-0.46,-0.19,
0.356,0.28,-4.01,2.62,-2.10,-0.46,-0.19,
0.357,0.28,-4.01,2.62,-1.99,-0.59,-0.19,
0.357,-0.22,-4.17,2.81,-1.99,-0.59,-0.19,
0.358,-0.22,-4.17,2.81,-1.85,-0.73,-0.16,
0.358,-0.70,-4.29,2.95,-1.85,-0.73,-0.16,
0.358,-0.70,-4.29,2.95,-1.68,-0.91,-0.11,
0.359,-0.70,-4.29,2.95,-1.49,-1.11,-0.04,
0.359,-1.08,-4.39,3.08,-1.49,-1.11,-0.04,
0.36,-1.08,-4.39,3.08,-1.27,-1.34,0.05,
0.36,-1.37,-4.49,3.13,-1.27,-1.34,0.05,
0.36,-1.37,-4.49,3.13,-1.02,-1.60,0.15,
0.361,-1.53,-4.60,3.14,-1.02,-1.60,0.15,
0.361,-1.65,-4.67,3.08,-1.02,-1.60,0.15,
0.361,-1.65,-4.67,3.08,-0.73,-1.88,0.26,
0.362,-1.76,-4.78,2.97,-0.73,-1.88,0.26,
0.362,-1.76,-4.78,2.97,-0.42,-2.19,0.37,
0.362,-1.85,-4.91,2.69,-0.42,-2.19,0.37,
0.363,-1.85,-4.91,2.69,-0.08,-2.52,0.48,
0.363,-1.92,-5.03,2.22,-0.08,-2.52,0.48,
0.364,-1.92,-5.03,2.22,0.29,-2.88,0.59,
0.364,-1.93,-5.13,1.53,0.29,-2.88,0.59,
0.364,-1.93,-5.13,1.53,0.65,-3.23,0.70,
0.364,-1.96,-5.25,0.70,0.65,-3.23,0.70,
0.365,-1.96,-5.25,0.70,1.02,-3.60,0.81,
0.365,-2.05,-5.34,-0.17,1.02,-3.60,0.81,
0.365,-2.05,-5.34,-0.17,1.37,-3.98,0.91,
0.366,-2.09,-5.52,-1.01,1.37,-3.98,0.91,
0.366,-2.09,-5.52,-1.01,1.70,-4.35,1.00,
0.369,-2.14,-5.76,-1.84,1.70,-4.35,1.00,
0.369,-2.14,-5.76,-1.84,2.00,-4.71,1.08,
0.372,-2.23,-6.00,-2.65,2.00,-4.71,1.08,
0.373,-2.23,-6.00,-2.65,2.26,-5.03,1.16,
0.377,-2.23,-6.00,-2.65,2.48,-5.30,1.24,
0.378,-2.37,-6.19,-3.39,2.48,-5.30,1.24,
0.382,-2.37,-6.19,-3.39,2.66,-5.53,1.31,
0.383,-2.50,-6.40,-4.10,2.66,-5.53,1.31,
0.415,-2.50,-6.40,-4.10,2.79,-5.71,1.38,
0.415,-2.72,-6.62,-4.82,2.79,-5.71,1.38,
0.416,-2.72,-6.62,-4.82,2.88,-5.86,1.45,
0.416,-2.91,-6.93,-5.51,2.88,-5.86,1.45,
0.417,-1.93,-7.40,-6.87,2.88,-5.86,1.45,
0.417,-1.93,-7.40,-6.87,2.92,-5.96,1.52,
0.418,-2.21,-7.76,-7.53,2.92,-5.96,1.52,
0.418,-2.21,-7.76,-7.53,2.89,-6.05,1.56,
0.418,-2.86,-8.05,-7.80,2.89,-6.05,1.56,
0.419,-2.86,-8.05,-7.80,2.79,-6.09,1.59,
0.419,-2.86,-8.05,-7.80,2.67,-6.07,1.64,
0.42,-3.54,-8.25,-7.78,2.67,-6.07,1.64,
0.42,-3.54,-8.25,-7.78,2.53,-5.99,1.72,
0.421,-4.03,-8.53,-7.96,2.53,-5.99,1.72,
0.421,-4.03,-8.53,-7.96,2.36,-5.91,1.82,
0.422,-4.20,-8.97,-8.63,2.36,-5.91,1.82,
0.477,-4.20,-8.97,-8.63,2.13,-5.82,1.93,
0.478,-4.28,-9.54,-9.23,2.13,-5.82,1.93,
0.478,-4.42,-10.15,-9.64,2.13,-5.82,1.93,
0.479,-4.42,-10.15,-9.64,1.86,-5.71,2.04,
0.479,-4.42,-10.15,-9.64,1.55,-5.59,2.18,
0.48,-4.51,-10.79,-9.79,1.55,-5.59,2.18,
0.48,-4.46,-11.44,-9.67,1.55,-5.59,2.18,
0.481,-4.46,-11.44,-9.67,1.21,-5.43,2.33,
0.481,-4.46,-11.44,-9.67,0.86,-5.27,2.49,
0.481,-4.35,-12.08,-9.46,0.86,-5.27,2.49,
0.482,-4.35,-12.08,-9.46,0.49,-5.09,2.66,
0.482,-4.06,-12.69,-9.18,0.49,-5.09,2.66,
0.482,-4.06,-12.69,-9.18,0.13,-4.92,2.85,
0.483,-3.69,-13.27,-8.78,0.13,-4.92,2.85,
0.483,-3.69,-13.27,-8.78,-0.23,-4.75,3.04,
0.484,-3.22,-13.81,-8.38,-0.23,-4.75,3.04,
0.484,-2.61,-14.26,-8.07,-0.23,-4.75,3.04,
0.485,-2.61,-14.26,-8.07,-0.59,-4.60,3.22,
0.485,-1.92,-14.79,-7.81,-0.59,-4.60,3.22,
0.486,-1.92,-14.79,-7.81,-0.94,-4.49,3.39,
0.486,-1.61,-15.17,-7.16,-0.94,-4.49,3.39,
0.486,-1.61,-15.17,-7.16,-1.29,-4.43,3.54,
0.487,-1.31,-15.41,-6.27,-1.29,-4.43,3.54,
0.487,-1.31,-15.41,-6.27,-1.62,-4.37,3.68,
0.488,-1.31,-15.41,-6.27,-1.92,-4.32,3.82,
0.488,-0.88,-15.63,-5.14,-1.92,-4.32,3.82,
0.515,-0.88,-15.63,-5.14,-2.17,-4.27,3.97,
0.515,-0.27,-15.90,-4.00,-2.17,-4.27,3.97,
0.516,-0.27,-15.90,-4.00,-2.38,-4.23,4.11,
0.516,0.48,-16.27,-2.95,-2.38,-4.23,4.11,
0.517,0.48,-16.27,-2.95,-2.54,-4.15,4.25,
0.517,1.30,-16.62,-1.99,-2.54,-4.15,4.25,
0.517,1.30,-16.62,-1.99,-2.65,-4.04,4.40,
0.518,2.13,-16.98,-1.22,-2.65,-4.04,4.40,
0.518,2.13,-16.98,-1.22,-2.73,-3.88,4.54,
0.518,2.88,-17.20,-0.50,-2.73,-3.88,4.54,
0.519,3.44,-17.45,0.13,-2.73,-3.88,4.54,
0.519,3.44,-17.45,0.13,-2.77,-3.66,4.69,
0.52,3.44,-17.45,0.13,-2.79,-3.41,4.84,
0.52,4.21,-17.95,0.46,-2.79,-3.41,4.84,
0.582,4.21,-17.95,0.46,-2.80,-3.17,4.99,
0.583,4.94,-18.49,0.78,-2.80,-3.17,4.99,
0.583,4.94,-18.49,0.78,-2.82,-2.93,5.12,
0.583,5.46,-18.96,1.26,-2.82,-2.93,5.12,
0.584,5.88,-19.15,1.91,-2.82,-2.93,5.12,
0.584,5.88,-19.15,1.91,-2.82,-2.69,5.25,
0.584,5.88,-19.15,1.91,-2.80,-2.44,5.37,
0.585,6.17,-19.09,2.52,-2.80,-2.44,5.37,
0.585,6.17,-19.09,2.52,-2.75,-2.19,5.48,
0.585,6.35,-18.81,3.02,-2.75,-2.19,5.48,
0.586,6.35,-18.81,3.02,-2.68,-1.90,5.59,
0.586,6.63,-18.48,3.38,-2.68,-1.90,5.59,
0.587,7.00,-18.22,3.44,-2.68,-1.90,5.59,
0.587,7.00,-18.22,3.44,-2.61,-1.56,5.71,
0.587,7.00,-18.22,3.44,-2.55,-1.17,5.83,
0.588,7.35,-18.14,3.31,-2.55,-1.17,5.83,
0.588,7.35,-18.14,3.31,-2.50,-0.75,5.94,
0.588,7.85,-18.12,3.06,-2.50,-0.75,5.94,
0.589,8.38,-17.95,2.72,-2.50,-0.75,5.94,
0.589,8.38,-17.95,2.72,-2.48,-0.33,6.04,
0.59,8.38,-17.95,2.72,-2.49,0.03,6.14,
0.59,8.86,-18.01,2.27,-2.49,0.03,6.14,
0.59,9.27,-18.20,1.61,-2.49,0.03,6.14,
0.59,9.27,-18.20,1.61,-2.52,0.32,6.23,
0.591,9.27,-18.20,1.61,-2.58,0.55,6.30,
0.591,9.72,-18.30,1.00,-2.58,0.55,6.30,
0.592,10.22,-18.30,0.51,-2.58,0.55,6.30,
0.592,10.22,-18.30,0.51,-2.68,0.70,6.37,
0.592,10.22,-18.30,0.51,-2.81,0.77,6.42,
0.593,10.71,-18.28,0.19,-2.81,0.77,6.42,
0.615,11.22,-18.25,-0.00,-2.81,0.77,6.42,
0.616,11.22,-18.25,-0.00,-2.95,0.78,6.47,
0.616,11.22,-18.25,-0.00,-3.10,0.75,6.52,
0.617,11.84,-18.17,-0.04,-3.10,0.75,6.52,
0.617,11.84,-18.17,-0.04,-3.26,0.68,6.56,
0.617,12.55,-18.04,0.06,-3.26,0.68,6.56,
0.618,13.43,-17.80,0.31,-3.26,0.68,6.56,
0.618,13.43,-17.80,0.31,-3.41,0.60,6.59,
0.619,14.35,-17.42,0.60,-3.41,0.60,6.59,
0.619,14.35,-17.42,0.60,-3.56,0.50,6.60,
0.624,14.35,-17.42,0.60,-3.70,0.39,6.57,
0.625,15.18,-16.93,0.95,-3.70,0.39,6.57,
0.661,15.84,-16.34,1.33,-3.70,0.39,6.57,
0.662,15.84,-16.34,1.33,-3.84,0.30,6.51,
0.693,15.84,-16.34,1.33,-3.97,0.21,6.41,
0.694,16.33,-15.69,1.69,-3.97,0.21,6.41,
0.695,16.64,-14.98,2.02,-3.97,0.21,6.41,
0.695,16.64,-14.98,2.02,-4.10,0.14,6.29,
0.696,16.64,-14.98,2.02,-4.23,0.09,6.13,
0.696,16.89,-14.27,2.41,-4.23,0.09,6.13,
0.697,17.02,-13.66,2.83,-4.23,0.09,6.13,
0.697,17.02,-13.66,2.83,-4.34,0.04,5.94,
0.697,17.08,-13.11,3.33,-4.34,0.04,5.94,
0.698,17.08,-13.11,3.33,-4.45,-0.00,5.72,
0.698,17.18,-12.58,3.96,-4.45,-0.00,5.72,
0.699,17.18,-12.58,3.96,-4.54,-0.03,5.48,
0.699,17.18,-12.58,3.96,-4.60,-0.06,5.22,
0.7,17.07,-12.10,5.17,-4.60,-0.06,5.22,
0.7,16.36,-11.61,7.23,-4.60,-0.06,5.22,
0.701,16.36,-11.61,7.23,-4.61,-0.05,4.95,
0.701,16.36,-11.61,7.23,-4.54,-0.00,4.69,
0.702,15.98,-10.90,8.05,-4.54,-0.00,4.69,
0.702,15.76,-10.34,7.75,-4.54,-0.00,4.69,
0.703,15.76,-10.34,7.75,-4.42,0.03,4.44,
0.703,15.19,-9.83,7.82,-4.42,0.03,4.44,
0.704,15.19,-9.83,7.82,-4.31,0.05,4.20,
0.704,14.15,-9.27,8.56,-4.31,0.05,4.20,
0.705,14.15,-9.27,8.56,-4.19,0.07,3.96,
0.705,12.87,-8.75,9.50,-4.19,0.07,3.96,
0.706,12.87,-8.75,9.50,-4.04,0.09,3.77,
0.707,11.90,-8.27,10.07,-4.04,0.09,3.77,
0.707,11.90,-8.27,10.07,-3.85,0.09,3.61,
0.708,11.14,-7.89,10.18,-3.85,0.09,3.61,
0.708,11.14,-7.89,10.18,-3.62,0.08,3.49,
0.708,10.59,-7.50,10.26,-3.62,0.08,3.49,
0.709,10.59,-7.50,10.26,-3.37,0.07,3.42,
0.709,10.59,-7.50,10.26,-3.11,0.06,3.37,
0.71,10.00,-7.16,10.35,-3.11,0.06,3.37,
0.741,10.00,-7.16,10.35,-2.84,0.04,3.34,
0.741,9.48,-6.71,10.35,-2.84,0.04,3.34,
0.742,9.48,-6.71,10.35,-2.56,0.03,3.34,
0.742,9.05,-6.19,10.13,-2.56,0.03,3.34,
0.742,8.72,-5.69,9.67,-2.56,0.03,3.34,
0.743,8.72,-5.69,9.67,-2.28,0.01,3.36,
0.743,8.72,-5.69,9.67,-2.02,-0.03,3.38,
0.744,8.56,-5.17,9.17,-2.02,-0.03,3.38,
0.744,8.56,-5.17,9.17,-1.78,-0.07,3.40,
0.744,8.49,-4.73,8.69,-1.78,-0.07,3.40,
0.745,8.49,-4.73,8.69,-1.55,-0.13,3.42,
0.745,8.50,-4.31,8.12,-1.55,-0.13,3.42,
0.746,8.50,-4.31,8.12,-1.35,-0.20,3.43,
0.746,8.53,-3.91,7.58,-1.35,-0.20,3.43,
0.793,8.53,-3.91,7.58,-1.17,-0.29,3.44,
0.794,8.50,-3.47,7.03,-1.17,-0.29,3.44,
0.794,8.48,-3.10,6.50,-1.17,-0.29,3.44,
0.794,8.48,-3.10,6.50,-1.01,-0.37,3.44,
0.795,8.48,-3.10,6.50,-0.87,-0.45,3.44,
0.795,8.46,-2.77,6.02,-0.87,-0.45,3.44,
0.795,8.46,-2.77,6.02,-0.75,-0.55,3.44,
0.796,8.75,-2.47,5.91,-0.75,-0.55,3.44,
0.796,8.75,-2.47,5.91,-0.62,-0.65,3.41,
0.797,8.82,-1.94,5.59,-0.62,-0.65,3.41,
0.797,8.82,-1.94,5.59,-0.51,-0.78,3.38,
0.797,8.70,-1.57,5.27,-0.51,-0.78,3.38,
0.798,8.55,-1.32,5.04,-0.51,-0.78,3.38,
0.798,8.55,-1.32,5.04,-0.41,-0.93,3.36,
0.798,8.34,-1.08,4.86,-0.41,-0.93,3.36,
0.799,8.34,-1.08,4.86,-0.32,-1.06,3.37,
0.799,8.34,-1.08,4.86,-0.24,-1.17,3.39,
0.799,8.15,-0.83,4.63,-0.24,-1.17,3.39,
0.8,8.12,-0.57,4.41,-0.24,-1.17,3.39,
0.8,8.12,-0.57,4.41,-0.17,-1.24,3.42,
0.8,8.12,-0.57,4.41,-0.11,-1.28,3.46,
0.801,8.17,-0.33,4.18,-0.11,-1.28,3.46,
0.806,8.17,-0.33,4.18,-0.06,-1.33,3.51,
0.806,8.30,-0.08,3.91,-0.06,-1.33,3.51,
0.807,8.30,-0.08,3.91,-0.04,-1.36,3.55,
0.807,8.52,0.16,3.74,-0.04,-1.36,3.55,
0.819,8.52,0.16,3.74,-0.02,-1.39,3.61,
0.82,8.72,0.40,3.57,-0.02,-1.39,3.61,
0.82,8.92,0.71,3.48,-0.02,-1.39,3.61,
0.82,8.92,0.71,3.48,-0.02,-1.40,3.66,
0.824,9.14,1.05,3.36,-0.02,-1.40,3.66,
0.825,9.14,1.05,3.36,-0.03,-1.39,3.70,
0.86,9.34,1.42,3.31,-0.03,-1.39,3.70,
0.86,9.34,1.42,3.31,-0.06,-1.37,3.74,
0.861,9.61,1.79,3.25,-0.06,-1.37,3.74,
0.861,9.61,1.79,3.25,-0.09,-1.33,3.77,
0.862,9.84,2.12,3.16,-0.09,-1.33,3.77,
0.862,9.84,2.12,3.16,-0.15,-1.28,3.80,
0.862,9.84,2.12,3.16,-0.21,-1.21,3.81,
0.863,10.08,2.47,3.03,-0.21,-1.21,3.81,
0.863,10.33,2.81,2.95,-0.21,-1.21,3.81,
0.863,10.33,2.81,2.95,-0.30,-1.12,3.82,
0.864,10.53,3.16,2.83,-0.30,-1.12,3.82,
0.864,10.53,3.16,2.83,-0.40,-1.03,3.83,
0.864,10.74,3.50,2.80,-0.40,-1.03,3.83,
0.865,10.74,3.50,2.80,-0.53,-0.92,3.83,
0.865,10.98,3.83,2.78,-0.53,-0.92,3.83,
0.866,10.98,3.83,2.78,-0.68,-0.80,3.82,
0.866,11.16,4.10,2.81,-0.68,-0.80,3.82,
0.866,11.16,4.10,2.81,-0.84,-0.69,3.79,
0.878,11.34,4.36,2.85,-0.84,-0.69,3.79,
0.878,11.34,4.36,2.85,-1.03,-0.58,3.77,
0.907,11.55,4.58,3.05,-1.03,-0.58,3.77,
0.907,11.55,4.58,3.05,-1.21,-0.48,3.74,
0.908,11.55,4.58,3.05,-1.40,-0.39,3.71,
0.908,11.72,4.81,3.32,-1.40,-0.39,3.71,
0.909,11.72,4.81,3.32,-1.59,-0.31,3.68,
0.909,11.90,5.01,3.75,-1.59,-0.31,3.68,
0.91,12.11,5.21,4.27,-1.59,-0.31,3.68,
0.91,12.11,5.21,4.27,-1.77,-0.24,3.66,
0.91,12.37,5.45,4.88,-1.77,-0.24,3.66,
0.911,12.37,5.45,4.88,-1.93,-0.19,3.63,
0.911,12.66,5.66,5.59,-1.93,-0.19,3.63,
0.911,12.66,5.66,5.59,-2.06,-0.16,3.60,
0.912,13.08,5.89,6.31,-2.06,-0.16,3.60,
0.912,13.08,5.89,6.31,-2.16,-0.13,3.58,
0.912,13.58,6.23,7.02,-2.16,-0.13,3.58,
0.913,13.58,6.23,7.02,-2.24,-0.12,3.55,
0.921,14.17,6.67,7.71,-2.24,-0.12,3.55,
0.921,14.17,6.67,7.71,-2.28,-0.13,3.52,
0.922,14.17,6.67,7.71,-2.30,-0.14,3.49,
0.922,14.73,7.22,8.32,-2.30,-0.14,3.49,
0.968,15.17,7.72,8.92,-2.30,-0.14,3.49,
0.97,15.17,7.72,8.92,-2.29,-0.14,3.44,
0.97,15.17,7.72,8.92,-2.26,-0.10,3.39,
0.97,15.46,8.18,9.81,-2.26,-0.10,3.39,
0.971,15.46,8.18,9.81,-2.19,-0.02,3.32,
0.971,15.78,8.69,10.59,-2.19,-0.02,3.32,
0.972,15.78,8.69,10.59,-2.10,0.08,3.25,
0.972,16.23,9.23,10.98,-2.10,0.08,3.25,
0.973,16.67,9.75,11.02,-2.10,0.08,3.25,
0.974,16.67,9.75,11.02,-2.00,0.17,3.17,
0.974,17.09,10.14,11.00,-2.00,0.17,3.17,
0.975,17.09,10.14,11.00,-1.91,0.25,3.07,
0.975,17.57,10.30,11.17,-1.91,0.25,3.07,
0.976,17.57,10.30,11.17,-1.84,0.32,2.95,
0.976,17.57,10.30,11.17,-1.79,0.39,2.80,
0.977,18.22,10.24,11.52,-1.79,0.39,2.80,
0.978,19.06,10.06,11.92,-1.79,0.39,2.80,
0.978,19.06,10.06,11.92,-1.73,0.47,2.61,
0.979,20.09,9.81,12.36,-1.73,0.47,2.61,
0.979,20.09,9.81,12.36,-1.67,0.56,2.35,
0.98,20.09,9.81,12.36,-1.59,0.68,2.03,
0.98,21.04,9.55,12.91,-1.59,0.68,2.03,
0.981,21.04,9.55,12.91,-1.49,0.83,1.62,
0.981,21.81,9.33,13.52,-1.49,0.83,1.62,
1.034,22.12,9.08,14.18,-1.49,0.83,1.62,
1.035,22.12,9.08,14.18,-1.34,1.00,1.15,
1.035,21.94,8.85,14.73,-1.34,1.00,1.15,
1.036,21.94,8.85,14.73,-1.16,1.17,0.63,
1.036,21.31,8.55,15.16,-1.16,1.17,0.63,
1.037,21.31,8.55,15.16,-0.92,1.32,0.11,
1.037,20.29,8.18,15.34,-0.92,1.32,0.11,
1.037,20.29,8.18,15.34,-0.65,1.45,-0.40,
1.038,18.91,7.80,15.25,-0.65,1.45,-0.40,
1.038,18.91,7.80,15.25,-0.33,1.54,-0.86,
1.039,17.40,7.33,14.93,-0.33,1.54,-0.86,
1.039,17.40,7.33,14.93,0.00,1.60,-1.25,
1.04,17.40,7.33,14.93,0.35,1.63,-1.57,
1.04,15.94,6.80,14.45,0.35,1.63,-1.57,
1.04,14.65,6.25,13.84,0.35,1.63,-1.57,
1.041,14.65,6.25,13.84,0.68,1.65,-1.82,
1.041,13.50,5.71,13.07,0.68,1.65,-1.82,
1.042,13.50,5.71,13.07,1.00,1.65,-2.00,
1.042,12.46,5.20,12.30,1.00,1.65,-2.00,
1.042,12.46,5.20,12.30,1.27,1.63,-2.12,
1.043,11.56,4.78,11.58,1.27,1.63,-2.12,
1.043,11.56,4.78,11.58,1.51,1.58,-2.18,
1.044,10.89,4.50,10.90,1.51,1.58,-2.18,
1.044,10.89,4.50,10.90,1.72,1.52,-2.19,
1.045,10.89,4.50,10.90,1.89,1.45,-2.18,
1.045,10.56,4.47,10.11,1.89,1.45,-2.18,
1.045,10.56,4.47,10.11,2.03,1.37,-2.16,
1.046,9.86,4.22,9.58,2.03,1.37,-2.16,
1.067,9.86,4.22,9.58,2.14,1.30,-2.12,
1.068,9.25,4.09,9.00,2.14,1.30,-2.12,
1.068,9.25,4.09,9.00,2.22,1.24,-2.05,
1.068,8.93,4.02,8.29,2.22,1.24,-2.05,
1.069,8.93,4.02,8.29,2.28,1.16,-1.97,
1.069,8.95,3.92,7.57,2.28,1.16,-1.97,
1.07,9.22,3.82,7.13,2.28,1.16,-1.97,
1.07,9.22,3.82,7.13,2.30,1.10,-1.90,
1.07,9.22,3.82,7.13,2.30,1.03,-1.86,
1.071,9.57,3.79,6.83,2.30,1.03,-1.86,
1.087,9.90,3.70,6.57,2.30,1.03,-1.86,
1.088,9.90,3.70,6.57,2.29,0.96,-1.84,
1.088,9.90,3.70,6.57,2.28,0.90,-1.85,
1.089,10.16,3.58,6.40,2.28,0.90,-1.85,
1.091,10.51,3.37,6.29,2.28,0.90,-1.85,
1.091,10.51,3.37,6.29,2.26,0.84,-1.88,
1.091,10.51,3.37,6.29,2.26,0.77,-1.91,
1.092,10.95,3.10,6.22,2.26,0.77,-1.91,
1.097,10.95,3.10,6.22,2.26,0.71,-1.95,
1.097,11.60,2.75,6.19,2.26,0.71,-1.95,
1.1,11.60,2.75,6.19,2.27,0.65,-2.01,
1.1,12.42,2.24,6.16,2.27,0.65,-2.01,
1.112,13.36,1.65,6.10,2.27,0.65,-2.01,
1.113,13.36,1.65,6.10,2.30,0.57,-2.08,
1.114,14.34,0.89,6.12,2.30,0.57,-2.08,
1.114,14.34,0.89,6.12,2.35,0.47,-2.18,
1.114,15.38,0.04,6.05,2.35,0.47,-2.18,
1.114,15.38,0.04,6.05,2.42,0.36,-2.29,
1.147,16.30,-0.77,5.99,2.42,0.36,-2.29,
1.147,16.30,-0.77,5.99,2.51,0.23,-2.44,
1.148,16.30,-0.77,5.99,2.62,0.09,-2.62,
1.148,17.14,-1.63,5.94,2.62,0.09,-2.62,
1.148,17.73,-2.53,5.79,2.62,0.09,-2.62,
1.149,17.73,-2.53,5.79,2.73,-0.09,-2.81,
1.149,17.73,-2.53,5.79,2.84,-0.30,-3.01,
1.149,18.24,-3.44,5.57,2.84,-0.30,-3.01,
1.15,18.61,-4.36,5.34,2.84,-0.30,-3.01,
1.15,18.61,-4.36,5.34,2.94,-0.52,-3.21,
1.151,18.61,-4.36,5.34,3.02,-0.76,-3.39,
1.151,18.87,-5.27,5.15,3.02,-0.76,-3.39,
1.151,18.87,-5.27,5.15,3.06,-0.99,-3.56,
1.152,19.16,-6.15,5.06,3.06,-0.99,-3.56,
1.165,19.16,-6.15,5.06,3.09,-1.23,-3.73,
1.165,19.50,-7.02,5.01,3.09,-1.23,-3.73,
1.166,19.83,-7.75,5.06,3.09,-1.23,-3.73,
1.166,19.83,-7.75,5.06,3.10,-1.44,-3.89,
1.166,20.21,-8.41,5.24,3.10,-1.44,-3.89,
1.167,20.21,-8.41,5.24,3.09,-1.61,-4.04,
1.167,20.55,-8.99,5.48,3.09,-1.61,-4.04,
1.168,20.55,-8.99,5.48,3.06,-1.73,-4.20,
1.176,20.79,-9.59,5.72,3.06,-1.73,-4.20,
1.177,20.79,-9.59,5.72,3.03,-1.81,-4.35,
1.179,20.79,-9.59,5.72,3.01,-1.82,-4.51,
1.18,20.87,-10.14,6.05,3.01,-1.82,-4.51,
1.182,20.87,-10.14,6.05,2.99,-1.77,-4.67,
1.183,20.97,-10.62,6.39,2.99,-1.77,-4.67,
1.187,20.97,-10.62,6.39,2.97,-1.69,-4.84,
1.187,21.00,-11.06,6.64,2.97,-1.69,-4.84,
1.211,20.96,-11.47,6.81,2.97,-1.69,-4.84,
1.212,20.96,-11.47,6.81,2.98,-1.56,-5.03,
1.213,20.96,-11.47,6.81,2.99,-1.42,-5.22,
1.213,21.01,-11.96,6.95,2.99,-1.42,-5.22,
1.214,21.01,-12.62,7.13,2.99,-1.42,-5.22,
1.214,21.01,-12.62,7.13,3.04,-1.28,-5.42,
1.215,21.01,-12.62,7.13,3.11,-1.14,-5.63,
1.215,20.87,-13.34,7.20,3.11,-1.14,-5.63,
1.216,20.87,-13.34,7.20,3.19,-1.02,-5.84,
1.216,20.73,-14.15,7.11,3.19,-1.02,-5.84,
1.217,20.54,-14.96,6.96,3.19,-1.02,-5.84,
1.218,20.54,-14.96,6.96,3.30,-0.91,-6.03,
1.228,20.39,-15.81,6.66,3.30,-0.91,-6.03,
1.229,20.39,-15.81,6.66,3.41,-0.82,-6.22,
1.229,20.20,-16.67,6.31,3.41,-0.82,-6.22,
1.23,20.20,-16.67,6.31,3.53,-0.73,-6.40,
1.248,20.00,-17.40,5.91,3.53,-0.73,-6.40,
1.249,20.00,-17.40,5.91,3.65,-0.68,-6.57,
1.249,20.00,-17.40,5.91,3.77,-0.65,-6.73,
1.25,19.79,-18.13,5.57,3.77,-0.65,-6.73,
1.25,19.79,-18.13,5.57,3.89,-0.65,-6.89,
1.251,19.62,-18.84,5.15,3.89,-0.65,-6.89,
1.252,19.50,-19.67,4.76,3.89,-0.65,-6.89,
1.252,19.50,-19.67,4.76,4.01,-0.69,-7.04,
1.253,19.50,-19.67,4.76,4.12,-0.76,-7.19,
1.253,19.51,-20.47,4.38,4.12,-0.76,-7.19,
1.306,19.51,-20.47,4.38,4.23,-0.86,-7.33,
1.307,19.62,-21.28,3.99,4.23,-0.86,-7.33,
1.307,19.62,-21.28,3.99,4.32,-0.98,-7.46,
1.308,19.75,-22.15,3.64,4.32,-0.98,-7.46,
1.308,19.88,-22.99,3.27,4.32,-0.98,-7.46,
1.309,19.88,-22.99,3.27,4.41,-1.11,-7.59,
1.309,19.92,-23.84,2.88,4.41,-1.11,-7.59,
1.31,19.92,-23.84,2.88,4.47,-1.23,-7.73,
1.31,19.92,-23.84,2.88,4.52,-1.36,-7.86,
1.311,19.98,-24.67,2.52,4.52,-1.36,-7.86,
1.311,19.96,-25.62,2.15,4.52,-1.36,-7.86,
1.312,19.96,-25.62,2.15,4.54,-1.49,-7.98,
1.312,19.99,-26.52,1.76,4.54,-1.49,-7.98,
1.313,19.99,-26.52,1.76,4.54,-1.61,-8.09,
1.313,19.99,-26.52,1.76,4.51,-1.73,-8.19,
1.314,19.94,-27.33,1.36,4.51,-1.73,-8.19,
1.314,19.94,-27.33,1.36,4.44,-1.82,-8.28,
1.315,19.86,-28.10,1.00,4.44,-1.82,-8.28,
1.315,19.71,-28.80,0.57,4.44,-1.82,-8.28,
1.316,19.71,-28.80,0.57,4.34,-1.90,-8.36,
1.316,19.71,-28.80,0.57,4.19,-1.95,-8.43,
1.317,19.37,-29.39,0.23,4.19,-1.95,-8.43,
1.317,18.86,-29.73,-0.10,4.19,-1.95,-8.43,
1.318,18.86,-29.73,-0.10,4.02,-1.98,-8.49,
1.318,18.14,-29.84,-0.39,4.02,-1.98,-8.49,
1.319,18.14,-29.84,-0.39,3.81,-1.99,-8.53,
1.319,17.36,-29.83,-0.63,3.81,-1.99,-8.53,
1.32,17.36,-29.83,-0.63,3.57,-1.97,-8.55,
1.326,16.46,-29.83,-0.73,3.57,-1.97,-8.55,
1.327,16.46,-29.83,-0.73,3.31,-1.93,-8.57,
1.341,15.43,-29.86,-0.76,3.31,-1.93,-8.57,
1.342,15.43,-29.86,-0.76,3.04,-1.85,-8.56,
1.342,14.21,-29.75,-0.63,3.04,-1.85,-8.56,
1.343,14.21,-29.75,-0.63,2.76,-1.75,-8.54,
1.343,12.89,-29.51,-0.42,2.76,-1.75,-8.54,
1.344,12.89,-29.51,-0.42,2.48,-1.64,-8.48,
1.345,12.89,-29.51,-0.42,2.21,-1.52,-8.37,
1.345,11.60,-29.17,-0.11,2.21,-1.52,-8.37,
1.352,11.60,-29.17,-0.11,1.94,-1.42,-8.24,
1.352,10.48,-28.76,0.30,1.94,-1.42,-8.24,
1.353,10.48,-28.76,0.30,1.70,-1.30,-8.08,
1.353,9.40,-28.25,0.66,1.70,-1.30,-8.08,
1.358,8.48,-27.63,0.97,1.70,-1.30,-8.08,
1.359,8.48,-27.63,0.97,1.49,-1.18,-7.89,
1.434,8.48,-27.63,0.97,1.29,-1.05,-7.69,
1.434,7.62,-27.02,1.17,1.29,-1.05,-7.69,
1.435,7.62,-27.02,1.17,1.10,-0.90,-7.48,
1.435,6.82,-26.42,1.28,1.10,-0.90,-7.48,
1.436,6.82,-26.42,1.28,0.91,-0.75,-7.27,
1.437,6.10,-25.82,1.40,0.91,-0.75,-7.27,
1.437,6.10,-25.82,1.40,0.74,-0.59,-7.07,
1.438,5.44,-25.26,1.53,0.74,-0.59,-7.07,
1.438,5.44,-25.26,1.53,0.57,-0.43,-6.86,
1.439,4.93,-24.67,1.64,0.57,-0.43,-6.86,
1.439,4.93,-24.67,1.64,0.43,-0.28,-6.66,
1.44,4.54,-24.16,1.82,0.43,-0.28,-6.66,
1.44,4.54,-24.16,1.82,0.30,-0.12,-6.47,
1.441,4.24,-23.62,2.02,0.30,-0.12,-6.47,
1.441,4.00,-23.31,2.23,0.30,-0.12,-6.47,
1.442,4.00,-23.31,2.23,0.20,0.03,-6.28,
1.442,4.00,-23.31,2.23,0.12,0.16,-6.11,
1.443,3.73,-22.94,2.46,0.12,0.16,-6.11,
1.443,3.41,-22.55,2.65,0.12,0.16,-6.11,
1.444,3.41,-22.55,2.65,0.07,0.30,-5.95,
1.444,3.41,-22.55,2.65,0.05,0.42,-5.80,
1.445,3.02,-22.14,2.85,0.05,0.42,-5.80,
1.445,3.02,-22.14,2.85,0.05,0.52,-5.65,
1.446,2.67,-21.66,3.01,0.05,0.52,-5.65,
1.446,2.67,-21.66,3.01,0.07,0.61,-5.51,
1.447,2.18,-21.30,3.08,0.07,0.61,-5.51,
1.447,1.70,-20.89,3.19,0.07,0.61,-5.51,
1.448,1.70,-20.89,3.19,0.11,0.68,-5.38,
1.448,1.25,-20.53,3.22,0.11,0.68,-5.38,
1.449,1.25,-20.53,3.22,0.17,0.72,-5.24,
1.449,1.25,-20.53,3.22,0.25,0.73,-5.11,
1.45,0.75,-20.23,3.21,0.25,0.73,-5.11,
1.45,0.75,-20.23,3.21,0.34,0.71,-4.98,
1.451,0.31,-19.90,3.21,0.34,0.71,-4.98,
1.451,0.31,-19.90,3.21,0.45,0.64,-4.85,
1.452,-0.21,-19.58,3.23,0.45,0.64,-4.85,
1.452,-0.21,-19.58,3.23,0.57,0.53,-4.72,
1.453,-0.69,-19.22,3.33,0.57,0.53,-4.72,
1.485,-0.69,-19.22,3.33,0.70,0.39,-4.59,
1.486,-1.04,-18.79,3.40,0.70,0.39,-4.59,
1.486,-1.41,-18.37,3.43,0.70,0.39,-4.59,
1.487,-1.41,-18.37,3.43,0.85,0.22,-4.45,
1.487,-1.41,-18.37,3.43,1.00,0.02,-4.33,
1.488,-1.71,-17.97,3.44,1.00,0.02,-4.33,
1.488,-1.93,-17.64,3.43,1.00,0.02,-4.33,
1.488,-1.93,-17.64,3.43,1.16,-0.19,-4.21,
1.489,-2.03,-17.28,3.30,1.16,-0.19,-4.21,
1.489,-2.03,-17.28,3.30,1.30,-0.41,-4.11,
1.49,-2.11,-17.00,3.14,1.30,-0.41,-4.11,
1.49,-2.11,-17.00,3.14,1.44,-0.63,-4.02,
1.49,-2.21,-16.78,2.89,1.44,-0.63,-4.02,
1.491,-2.21,-16.78,2.89,1.55,-0.84,-3.94,
1.491,-2.39,-16.55,2.68,1.55,-0.84,-3.94,
1.492,-2.39,-16.55,2.68,1.64,-1.03,-3.89,
1.59,-2.39,-16.55,2.68,1.70,-1.19,-3.85,
1.59,-2.57,-16.39,2.51,1.70,-1.19,-3.85,
1.591,-2.57,-16.39,2.51,1.72,-1.31,-3.80,
1.591,-2.75,-16.21,2.33,1.72,-1.31,-3.80,
1.591,-2.95,-15.94,2.19,1.72,-1.31,-3.80,
1.592,-2.95,-15.94,2.19,1.72,-1.39,-3.77,
1.592,-2.95,-15.94,2.19,1.69,-1.42,-3.75,
1.593,-3.08,-15.77,2.08,1.69,-1.42,-3.75,
1.593,-3.29,-15.68,1.97,1.69,-1.42,-3.75,
1.594,-3.29,-15.68,1.97,1.64,-1.40,-3.74,
1.594,-3.53,-15.54,1.82,1.64,-1.40,-3.74,
1.595,-3.53,-15.54,1.82,1.58,-1.34,-3.76,
1.595,-3.84,-15.47,1.68,1.58,-1.34,-3.76,
1.595,-3.84,-15.47,1.68,1.50,-1.23,-3.80,
1.596,-4.32,-15.46,1.40,1.50,-1.23,-3.80,
1.596,-4.32,-15.46,1.40,1.41,-1.11,-3.85,
1.597,-4.32,-15.46,1.40,1.30,-0.96,-3.90,
1.597,-4.93,-15.50,1.00,1.30,-0.96,-3.90,
1.598,-4.93,-15.50,1.00,1.18,-0.80,-3.95,
1.598,-5.79,-15.60,0.62,1.18,-0.80,-3.95,
1.598,-6.73,-15.69,0.20,1.18,-0.80,-3.95,
1.599,-6.73,-15.69,0.20,1.05,-0.65,-3.98,
1.599,-7.82,-15.76,-0.19,1.05,-0.65,-3.98,
1.6,-7.82,-15.76,-0.19,0.89,-0.51,-3.98,
1.6,-8.96,-15.79,-0.50,0.89,-0.51,-3.98,
1.601,-8.96,-15.79,-0.50,0.71,-0.39,-3.94,
1.601,-8.96,-15.79,-0.50,0.52,-0.30,-3.85,
1.602,-10.03,-15.80,-0.73,0.52,-0.30,-3.85,
1.602,-10.97,-15.84,-0.79,0.52,-0.30,-3.85,
1.603,-10.97,-15.84,-0.79,0.33,-0.22,-3.71,
1.603,-11.74,-15.92,-0.83,0.33,-0.22,-3.71,
1.604,-11.74,-15.92,-0.83,0.14,-0.16,-3.52,
1.604,-11.74,-15.92,-0.83,-0.05,-0.12,-3.29,
1.604,-12.26,-16.05,-0.72,-0.05,-0.12,-3.29,
1.605,-12.55,-16.16,-0.54,-0.05,-0.12,-3.29,
1.606,-12.55,-16.16,-0.54,-0.22,-0.11,-3.03,
1.606,-12.55,-16.16,-0.54,-0.38,-0.12,-2.74,
1.607,-12.63,-16.30,-0.36,-0.38,-0.12,-2.74,
1.607,-12.63,-16.30,-0.36,-0.51,-0.15,-2.45,
1.608,-12.50,-16.46,-0.08,-0.51,-0.15,-2.45,
1.608,-12.21,-16.54,0.18,-0.51,-0.15,-2.45,
1.609,-12.21,-16.54,0.18,-0.63,-0.18,-2.14,
1.609,-11.90,-16.55,0.49,-0.63,-0.18,-2.14,
1.61,-11.90,-16.55,0.49,-0.72,-0.23,-1.85,
1.61,-11.90,-16.55,0.49,-0.79,-0.26,-1.58,
1.611,-11.53,-16.54,0.84,-0.79,-0.26,-1.58,
1.64,-11.24,-16.42,1.20,-0.79,-0.26,-1.58,
1.641,-11.24,-16.42,1.20,-0.85,-0.29,-1.32,
1.641,-11.24,-16.42,1.20,-0.88,-0.31,-1.09,
1.642,-10.83,-16.29,1.60,-0.88,-0.31,-1.09,
1.642,-10.44,-16.22,1.93,-0.88,-0.31,-1.09,
1.643,-10.44,-16.22,1.93,-0.90,-0.32,-0.88,
1.643,-10.11,-16.11,2.18,-0.90,-0.32,-0.88,
1.644,-10.11,-16.11,2.18,-0.91,-0.32,-0.69,
1.644,-10.11,-16.11,2.18,-0.90,-0.30,-0.52,
1.645,-9.85,-16.00,2.47,-0.90,-0.30,-0.52,
1.645,-9.74,-15.90,2.63,-0.90,-0.30,-0.52,
1.646,-9.74,-15.90,2.63,-0.88,-0.28,-0.36,
1.646,-9.68,-15.78,2.66,-0.88,-0.28,-0.36,
1.647,-9.68,-15.78,2.66,-0.84,-0.22,-0.20,
1.647,-9.68,-15.78,2.66,-0.81,-0.16,-0.05,
1.648,-9.61,-15.70,2.50,-0.81,-0.16,-0.05,
1.648,-9.60,-15.71,2.16,-0.81,-0.16,-0.05,
1.649,-9.60,-15.71,2.16,-0.80,-0.08,0.12,
1.674,-9.60,-15.71,2.16,-0.80,0.01,0.29,
1.675,-9.57,-15.82,1.79,-0.80,0.01,0.29,
1.675,-9.57,-15.82,1.79,-0.83,0.12,0.49,
1.675,-9.56,-15.89,1.39,-0.83,0.12,0.49,
1.676,-9.52,-15.95,0.99,-0.83,0.12,0.49,
1.676,-9.52,-15.95,0.99,-0.88,0.25,0.69,
1.676,-9.52,-15.95,0.99,-0.94,0.39,0.89,
1.677,-9.44,-15.96,0.69,-0.94,0.39,0.89,
1.677,-9.44,-15.96,0.69,-1.02,0.55,1.10,
1.677,-9.32,-16.07,0.46,-1.02,0.55,1.10,
1.678,-9.20,-16.17,0.30,-1.02,0.55,1.10,
1.678,-9.20,-16.17,0.30,-1.10,0.70,1.31,
1.686,-9.20,-16.17,0.30,-1.19,0.84,1.52,
1.686,-9.03,-16.29,0.17,-1.19,0.84,1.52,
1.686,-9.03,-16.29,0.17,-1.27,0.97,1.73,
1.687,-8.89,-16.40,0.04,-1.27,0.97,1.73,
1.696,-8.89,-16.40,0.04,-1.35,1.07,1.94,
1.697,-8.72,-16.52,-0.10,-1.35,1.07,1.94,
1.697,-8.72,-16.52,-0.10,-1.43,1.16,2.15,
1.698,-8.51,-16.63,-0.24,-1.43,1.16,2.15,
1.701,-8.51,-16.63,-0.24,-1.51,1.22,2.35,
1.702,-8.24,-16.81,-0.40,-1.51,1.22,2.35,
1.704,-8.24,-16.81,-0.40,-1.59,1.27,2.56,
1.705,-7.95,-17.03,-0.51,-1.59,1.27,2.56,
1.709,-7.95,-17.03,-0.51,-1.67,1.29,2.76,
1.71,-7.61,-17.33,-0.54,-1.67,1.29,2.76,
1.734,-7.61,-17.33,-0.54,-1.75,1.29,2.97,
1.735,-7.38,-17.69,-0.52,-1.75,1.29,2.97,
1.736,-7.38,-17.69,-0.52,-1.82,1.28,3.17,
1.736,-7.17,-18.02,-0.42,-1.82,1.28,3.17,
1.736,-7.17,-18.02,-0.42,-1.88,1.24,3.38,
1.737,-6.97,-18.25,-0.25,-1.88,1.24,3.38,
1.737,-6.97,-18.25,-0.25,-1.93,1.19,3.59,
1.737,-6.69,-18.47,-0.07,-1.93,1.19,3.59,
1.738,-6.69,-18.47,-0.07,-1.96,1.12,3.81,
1.738,-6.38,-18.71,0.15,-1.96,1.12,3.81,
1.739,-6.38,-18.71,0.15,-1.98,1.04,4.02,
1.739,-5.89,-19.03,0.35,-1.98,1.04,4.02,
1.794,-5.89,-19.03,0.35,-1.99,0.94,4.25,
1.795,-5.32,-19.45,0.61,-1.99,0.94,4.25,
1.795,-5.32,-19.45,0.61,-1.97,0.82,4.46,
1.795,-4.72,-19.95,0.87,-1.97,0.82,4.46,
1.796,-4.72,-19.95,0.87,-1.94,0.69,4.67,
1.796,-4.07,-20.44,1.11,-1.94,0.69,4.67,
1.796,-3.39,-20.93,1.27,-1.94,0.69,4.67,
1.797,-3.39,-20.93,1.27,-1.89,0.57,4.86,
1.797,-3.39,-20.93,1.27,-1.83,0.46,5.04,
1.798,-2.78,-21.48,1.40,-1.83,0.46,5.04,
1.798,-2.28,-21.93,1.47,-1.83,0.46,5.04,
1.798,-2.28,-21.93,1.47,-1.76,0.35,5.22,
1.799,-2.28,-21.93,1.47,-1.68,0.25,5.39,
1.799,-1.77,-22.34,1.50,-1.68,0.25,5.39,
1.799,-1.77,-22.34,1.50,-1.61,0.17,5.55,
1.8,-1.37,-22.74,1.46,-1.61,0.17,5.55,
1.8,-0.85,-23.20,1.28,-1.61,0.17,5.55,
1.8,-0.85,-23.20,1.28,-1.54,0.09,5.72,
1.801,-0.35,-23.78,1.04,-1.54,0.09,5.72,
1.801,-0.35,-23.78,1.04,-1.49,0.02,5.89,
1.801,0.26,-24.42,0.69,-1.49,0.02,5.89,
1.802,0.26,-24.42,0.69,-1.45,-0.05,6.05,
1.802,0.92,-25.13,0.33,-1.45,-0.05,6.05,
1.802,0.92,-25.13,0.33,-1.44,-0.11,6.21,
1.803,1.64,-25.88,-0.05,-1.44,-0.11,6.21,
1.803,1.64,-25.88,-0.05,-1.45,-0.18,6.36,
1.808,2.32,-26.71,-0.49,-1.45,-0.18,6.36,
1.808,2.32,-26.71,-0.49,-1.49,-0.24,6.51,
1.817,3.03,-27.61,-0.93,-1.49,-0.24,6.51,
1.818,3.03,-27.61,-0.93,-1.57,-0.30,6.65,
1.818,3.03,-27.61,-0.93,-1.68,-0.33,6.79,
1.818,3.75,-28.45,-1.35,-1.68,-0.33,6.79,
1.822,3.75,-28.45,-1.35,-1.84,-0.36,6.93,
1.823,4.37,-29.31,-1.73,-1.84,-0.36,6.93,
1.826,4.37,-29.31,-1.73,-2.02,-0.38,7.07,
1.827,4.91,-30.15,-2.01,-2.02,-0.38,7.07,
1.85,4.91,-30.15,-2.01,-2.25,-0.40,7.22,
1.851,5.39,-30.97,-2.25,-2.25,-0.40,7.22,
1.851,5.90,-31.79,-2.44,-2.25,-0.40,7.22,
1.852,5.90,-31.79,-2.44,-2.51,-0.41,7.39,
1.852,5.90,-31.79,-2.44,-2.80,-0.43,7.58,
1.853,6.56,-32.72,-2.46,-2.80,-0.43,7.58,
1.853,7.57,-33.81,-2.41,-2.80,-0.43,7.58,
1.854,7.57,-33.81,-2.41,-3.10,-0.45,7.78,
1.884,7.57,-33.81,-2.41,-3.42,-0.49,8.00,
1.885,8.91,-35.19,-2.29,-3.42,-0.49,8.00,
1.885,10.59,-36.87,-2.10,-3.42,-0.49,8.00,
1.886,10.59,-36.87,-2.10,-3.74,-0.52,8.21,
1.886,12.44,-38.68,-1.74,-3.74,-0.52,8.21,
1.887,12.44,-38.68,-1.74,-4.07,-0.55,8.43,
1.887,12.44,-38.68,-1.74,-4.40,-0.56,8.65,
1.888,14.57,-39.86,-1.20,-4.40,-0.56,8.65,
1.888,16.94,-39.41,-0.63,-4.40,-0.56,8.65,
1.889,16.94,-39.41,-0.63,-4.73,-0.52,8.86,
1.89,16.94,-39.41,-0.63,-5.06,-0.43,9.07,
1.89,19.41,-38.94,0.05,-5.06,-0.43,9.07,
1.891,21.83,-38.47,0.89,-5.06,-0.43,9.07,
1.891,21.83,-38.47,0.89,-5.41,-0.24,9.26,
1.892,23.67,-38.00,1.54,-5.41,-0.24,9.26,
1.893,23.67,-38.00,1.54,-5.77,0.06,9.41,
1.893,24.70,-37.51,2.22,-5.77,0.06,9.41,
1.894,24.70,-37.51,2.22,-6.16,0.44,9.52,
1.894,24.70,-37.51,2.22,-6.56,0.84,9.61,
1.895,25.32,-37.03,3.22,-6.56,0.84,9.61,
1.96,25.72,-36.55,4.53,-6.56,0.84,9.61,
1.961,25.72,-36.55,4.53,-6.98,1.20,9.66,
1.961,25.72,-36.55,4.53,-7.36,1.51,9.69,
1.962,26.00,-36.07,6.17,-7.36,1.51,9.69,
1.963,26.19,-35.60,8.14,-7.36,1.51,9.69,
1.963,26.19,-35.60,8.14,-7.68,1.74,9.68,
1.964,26.41,-35.14,10.15,-7.68,1.74,9.68,
1.964,26.41,-35.14,10.15,-7.90,1.91,9.64,
1.964,26.52,-34.69,11.97,-7.90,1.91,9.64,
1.965,26.52,-34.69,11.97,-8.03,2.00,9.56,
1.965,26.52,-34.69,11.97,-8.04,2.02,9.47,
1.966,26.51,-34.26,13.48,-8.04,2.02,9.47,
1.966,26.46,-33.85,14.60,-8.04,2.02,9.47,
1.967,26.46,-33.85,14.60,-7.96,1.95,9.38,
1.967,26.37,-33.45,15.61,-7.96,1.95,9.38,
1.968,26.37,-33.45,15.61,-7.79,1.81,9.31,
1.968,26.09,-33.07,16.53,-7.79,1.81,9.31,
1.969,26.09,-33.07,16.53,-7.53,1.61,9.27,
1.969,25.87,-32.71,17.57,-7.53,1.61,9.27,
1.97,25.87,-32.71,17.57,-7.19,1.36,9.27,
1.97,25.87,-32.71,17.57,-6.75,1.06,9.34,
1.972,26.12,-32.36,18.58,-6.75,1.06,9.34,
1.972,26.12,-32.36,18.58,-6.21,0.70,9.47,
1.973,26.43,-32.03,19.46,-6.21,0.70,9.47,
1.973,26.43,-32.03,19.46,-5.60,0.32,9.62,
1.973,26.79,-31.71,20.11,-5.60,0.32,9.62,
1.974,26.79,-31.71,20.11,-4.92,-0.08,9.74,
1.974,27.22,-31.40,20.27,-4.92,-0.08,9.74,
1.975,27.93,-29.87,19.83,-4.92,-0.08,9.74,
1.975,27.93,-29.87,19.83,-4.19,-0.50,9.81,
1.98,28.96,-27.83,19.02,-4.19,-0.50,9.81,
1.981,28.96,-27.83,19.02,-3.45,-0.95,9.83,
1.981,30.19,-25.83,17.98,-3.45,-0.95,9.83,
1.982,30.19,-25.83,17.98,-2.75,-1.41,9.75,
1.982,30.19,-25.83,17.98,-2.11,-1.85,9.56,
1.983,31.56,-23.83,16.78,-2.11,-1.85,9.56,
2.194,31.56,-23.83,16.78,-1.54,-2.27,9.25,
2.194,32.89,-21.88,15.31,-1.54,-2.27,9.25,
2.195,34.03,-20.06,13.57,-1.54,-2.27,9.25,
2.195,34.03,-20.06,13.57,-1.08,-2.63,8.82,
2.196,34.03,-20.06,13.57,-0.72,-2.95,8.30,
2.196,34.83,-18.59,11.60,-0.72,-2.95,8.30,
2.197,35.17,-17.51,9.63,-0.72,-2.95,8.30,
2.197,35.17,-17.51,9.63,-0.52,-3.19,7.71,
2.197,35.17,-17.51,9.63,-0.46,-3.33,7.08,
2.198,34.98,-16.67,7.90,-0.46,-3.33,7.08,
2.198,34.33,-15.92,6.64,-0.46,-3.33,7.08,
2.199,34.33,-15.92,6.64,-0.55,-3.35,6.45,
2.199,33.31,-15.33,5.91,-0.55,-3.35,6.45,
2.199,33.31,-15.33,5.91,-0.75,-3.27,5.87,
2.2,33.31,-15.33,5.91,-1.04,-3.07,5.35,
2.2,32.27,-14.87,5.60,-1.04,-3.07,5.35,
2.2,31.23,-14.60,5.68,-1.04,-3.07,5.35,
2.201,31.23,-14.60,5.68,-1.38,-2.78,4.92,
2.201,30.03,-14.46,6.02,-1.38,-2.78,4.92,
2.202,30.03,-14.46,6.02,-1.74,-2.42,4.56,
2.202,28.47,-14.30,6.86,-1.74,-2.42,4.56,
2.203,28.47,-14.30,6.86,-2.10,-2.02,4.25,
2.203,28.47,-14.30,6.86,-2.43,-1.60,4.02,
2.204,27.08,-13.77,7.21,-2.43,-1.60,4.02,
2.204,27.08,-13.77,7.21,-2.74,-1.13,3.83,
2.204,25.47,-13.22,7.62,-2.74,-1.13,3.83,
2.205,23.71,-12.56,8.37,-2.74,-1.13,3.83,
2.205,23.71,-12.56,8.37,-3.04,-0.63,3.68,
2.206,21.90,-11.74,9.05,-3.04,-0.63,3.68,
2.206,21.90,-11.74,9.05,-3.29,-0.17,3.58,
2.206,21.90,-11.74,9.05,-3.49,0.23,3.53,
2.207,20.17,-10.84,9.56,-3.49,0.23,3.53,
2.207,20.17,-10.84,9.56,-3.64,0.55,3.52,
2.207,18.56,-9.84,9.93,-3.64,0.55,3.52,
2.208,17.19,-8.82,10.10,-3.64,0.55,3.52,
2.208,17.19,-8.82,10.10,-3.76,0.79,3.54,
2.208,17.19,-8.82,10.10,-3.86,0.96,3.58,
2.209,16.02,-7.92,10.21,-3.86,0.96,3.58,
2.209,15.17,-7.16,10.35,-3.86,0.96,3.58,
2.21,15.17,-7.16,10.35,-3.94,1.09,3.65,
2.21,14.59,-6.55,10.49,-3.94,1.09,3.65,
2.21,14.59,-6.55,10.49,-4.00,1.17,3.74,
2.211,14.31,-6.00,10.63,-4.00,1.17,3.74,
2.211,14.31,-6.00,10.63,-4.05,1.22,3.84,
2.245,14.21,-5.54,10.79,-4.05,1.22,3.84,
2.246,14.21,-5.54,10.79,-4.08,1.21,3.93,
2.246,14.25,-5.13,10.96,-4.08,1.21,3.93,
2.247,14.25,-5.13,10.96,-4.10,1.18,4.02,
2.247,14.25,-5.13,10.96,-4.10,1.13,4.10,
2.248,14.40,-4.68,11.21,-4.10,1.13,4.10,
2.248,14.60,-4.18,11.70,-4.10,1.13,4.10,
2.249,14.60,-4.18,11.70,-4.09,1.06,4.17,
2.249,14.60,-4.18,11.70,-4.05,0.99,4.22,
2.25,14.99,-3.59,12.31,-4.05,0.99,4.22,
2.25,15.47,-3.12,12.88,-4.05,0.99,4.22,
2.251,15.47,-3.12,12.88,-3.97,0.91,4.26,
2.251,15.47,-3.12,12.88,-3.85,0.83,4.28,
2.251,15.92,-2.66,13.49,-3.85,0.83,4.28,
2.252,16.47,-2.18,14.09,-3.85,0.83,4.28,
2.252,16.47,-2.18,14.09,-3.70,0.74,4.29,
2.253,16.96,-1.62,14.60,-3.70,0.74,4.29,
2.253,16.96,-1.62,14.60,-3.50,0.65,4.30,
2.254,17.44,-0.94,15.04,-3.50,0.65,4.30,
2.254,17.44,-0.94,15.04,-3.27,0.58,4.29,
2.254,17.77,-0.19,15.36,-3.27,0.58,4.29,
2.255,17.77,-0.19,15.36,-3.02,0.51,4.28,
2.255,18.05,0.72,15.57,-3.02,0.51,4.28,
2.256,18.05,0.72,15.57,-2.74,0.44,4.25,
2.256,18.21,1.76,15.69,-2.74,0.44,4.25,
2.256,18.21,1.76,15.69,-2.46,0.37,4.21,
2.257,18.21,1.76,15.69,-2.17,0.27,4.16,
2.257,18.25,2.90,15.66,-2.17,0.27,4.16,
2.258,18.25,2.90,15.66,-1.90,0.12,4.11,
2.258,18.42,4.05,15.48,-1.90,0.12,4.11,
2.258,18.42,4.05,15.48,-1.66,-0.07,4.08,
2.259,18.79,5.05,15.35,-1.66,-0.07,4.08,
2.259,18.79,5.05,15.35,-1.44,-0.28,4.04,
2.26,19.37,5.94,15.45,-1.44,-0.28,4.04,
2.26,19.37,5.94,15.45,-1.23,-0.46,3.98,
2.261,20.32,6.72,15.70,-1.23,-0.46,3.98,
2.261,20.32,6.72,15.70,-1.02,-0.58,3.86,
2.261,21.49,7.43,16.06,-1.02,-0.58,3.86,
2.262,21.49,7.43,16.06,-0.78,-0.65,3.68,
2.262,22.76,8.04,16.39,-0.78,-0.65,3.68,
2.263,22.76,8.04,16.39,-0.52,-0.69,3.44,
2.263,23.86,8.55,16.64,-0.52,-0.69,3.44,
2.264,23.86,8.55,16.64,-0.23,-0.70,3.14,
2.264,24.62,8.99,16.65,-0.23,-0.70,3.14,
2.264,24.62,8.99,16.65,0.07,-0.67,2.79,
2.265,24.90,9.40,16.56,0.07,-0.67,2.79,
2.265,24.83,9.85,15.94,0.07,-0.67,2.79,
2.266,24.83,9.85,15.94,0.38,-0.64,2.43,
2.266,24.83,9.85,15.94,0.66,-0.57,2.04,
2.267,24.49,10.27,14.90,0.66,-0.57,2.04,
2.267,23.86,10.57,13.68,0.66,-0.57,2.04,
2.268,23.86,10.57,13.68,0.89,-0.49,1.66,
2.268,23.06,10.70,12.50,0.89,-0.49,1.66,
2.268,23.06,10.70,12.50,1.05,-0.40,1.31,
2.269,23.06,10.70,12.50,1.16,-0.31,1.00,
2.269,22.20,10.74,11.33,1.16,-0.31,1.00,
2.27,21.43,10.74,10.29,1.16,-0.31,1.00,
2.27,21.43,10.74,10.29,1.21,-0.23,0.73,
2.271,20.89,10.81,9.26,1.21,-0.23,0.73,
2.271,20.89,10.81,9.26,1.20,-0.16,0.51,
2.272,20.56,11.01,8.34,1.20,-0.16,0.51,
2.272,20.56,11.01,8.34,1.16,-0.08,0.31,
2.272,20.56,11.01,8.34,1.08,-0.01,0.13,
2.273,20.36,11.23,7.53,1.08,-0.01,0.13,
2.273,20.24,11.46,6.87,1.08,-0.01,0.13,
2.273,20.24,11.46,6.87,0.96,0.07,-0.05,
2.274,20.24,11.46,6.87,0.82,0.13,-0.23,
2.274,20.20,11.60,6.37,0.82,0.13,-0.23,
2.274,20.24,11.73,6.05,0.82,0.13,-0.23,
2.275,20.24,11.73,6.05,0.67,0.19,-0.42,
2.275,20.34,11.78,5.88,0.67,0.19,-0.42,
2.276,20.34,11.78,5.88,0.51,0.24,-0.61,
2.276,20.34,11.78,5.88,0.35,0.27,-0.83,
2.276,20.42,11.82,5.87,0.35,0.27,-0.83,
2.277,20.46,11.78,5.86,0.35,0.27,-0.83,
2.277,20.46,11.78,5.86,0.20,0.30,-1.06,
2.364,20.46,11.78,5.86,0.05,0.30,-1.31,
2.364,20.49,11.63,6.01,0.05,0.30,-1.31,
2.365,20.31,11.41,6.20,0.05,0.30,-1.31,
2.365,20.31,11.41,6.20,-0.09,0.29,-1.56,
2.365,20.31,11.41,6.20,-0.22,0.25,-1.81,
2.366,20.10,11.05,6.53,-0.22,0.25,-1.81,
2.366,19.85,10.70,6.90,-0.22,0.25,-1.81,
2.366,19.85,10.70,6.90,-0.34,0.22,-2.07,
2.367,19.85,10.70,6.90,-0.45,0.18,-2.31,
2.367,19.48,10.22,7.29,-0.45,0.18,-2.31,
2.368,19.48,10.22,7.29,-0.55,0.14,-2.54,
2.368,19.18,9.75,7.81,-0.55,0.14,-2.54,
2.368,18.87,9.16,8.43,-0.55,0.14,-2.54,
2.369,18.87,9.16,8.43,-0.62,0.12,-2.76,
2.369,18.50,8.46,9.03,-0.62,0.12,-2.76,
2.369,18.50,8.46,9.03,-0.68,0.11,-2.97,
2.37,18.04,7.68,9.73,-0.68,0.11,-2.97,
2.37,18.04,7.68,9.73,-0.72,0.11,-3.16,
2.37,18.04,7.68,9.73,-0.74,0.11,-3.34,
2.371,17.49,6.99,10.41,-0.74,0.11,-3.34,
2.371,17.49,6.99,10.41,-0.74,0.11,-3.50,
2.371,16.89,6.30,11.15,-0.74,0.11,-3.50,
2.372,16.25,5.74,11.89,-0.74,0.11,-3.50,
2.372,16.25,5.74,11.89,-0.71,0.10,-3.64,
2.399,15.55,5.21,12.60,-0.71,0.10,-3.64,
2.4,15.55,5.21,12.60,-0.65,0.09,-3.76,
2.4,15.55,5.21,12.60,-0.56,0.09,-3.85,
2.4,14.85,4.68,13.29,-0.56,0.09,-3.85,
2.401,14.24,4.22,13.86,-0.56,0.09,-3.85,
2.401,14.24,4.22,13.86,-0.44,0.07,-3.92,
2.401,13.76,3.63,14.33,-0.44,0.07,-3.92,
2.402,13.76,3.63,14.33,-0.28,0.06,-3.96,
2.402,13.76,3.63,14.33,-0.11,0.02,-3.98,
2.403,13.46,3.00,14.69,-0.11,0.02,-3.98,
2.403,13.40,2.36,14.92,-0.11,0.02,-3.98,
2.403,13.40,2.36,14.92,0.09,-0.03,-3.99,
2.404,13.40,2.36,14.92,0.29,-0.08,-3.97,
2.404,13.47,1.73,15.07,0.29,-0.08,-3.97,
2.404,13.47,1.73,15.07,0.51,-0.15,-3.96,
2.405,13.66,1.08,15.08,0.51,-0.15,-3.96,
2.405,13.66,1.08,15.08,0.72,-0.23,-3.94,
2.406,13.92,0.45,15.02,0.72,-0.23,-3.94,
2.406,14.25,-0.13,14.99,0.72,-0.23,-3.94,
2.406,14.25,-0.13,14.99,0.94,-0.33,-3.91,
2.407,14.72,-0.68,14.95,0.94,-0.33,-3.91,
2.407,14.72,-0.68,14.95,1.16,-0.45,-3.89,
2.407,15.46,-1.28,14.95,1.16,-0.45,-3.89,
2.408,15.46,-1.28,14.95,1.37,-0.59,-3.87,
2.408,16.37,-1.91,14.91,1.37,-0.59,-3.87,
2.408,16.37,-1.91,14.91,1.58,-0.74,-3.85,
2.409,17.52,-2.54,14.90,1.58,-0.74,-3.85,
2.409,17.52,-2.54,14.90,1.78,-0.89,-3.84,
2.41,18.87,-3.22,14.81,1.78,-0.89,-3.84,
2.41,18.87,-3.22,14.81,1.98,-1.04,-3.84,
2.508,20.24,-4.03,14.79,1.98,-1.04,-3.84,
2.509,20.24,-4.03,14.79,2.17,-1.19,-3.88,
2.509,21.72,-4.90,14.84,2.17,-1.19,-3.88,
2.51,21.72,-4.90,14.84,2.36,-1.33,-3.93,
2.51,23.16,-5.86,14.85,2.36,-1.33,-3.93,
2.511,23.16,-5.86,14.85,2.54,-1.46,-4.01,
2.511,24.66,-6.83,14.91,2.54,-1.46,-4.01,
2.512,24.66,-6.83,14.91,2.71,-1.57,-4.12,
2.512,26.22,-7.87,14.95,2.71,-1.57,-4.12,
2.513,26.22,-7.87,14.95,2.88,-1.65,-4.24,
2.513,27.89,-9.02,15.01,2.88,-1.65,-4.24,
2.514,27.89,-9.02,15.01,3.04,-1.70,-4.40,
2.514,29.71,-10.38,15.11,3.04,-1.70,-4.40,
2.515,29.71,-10.38,15.11,3.21,-1.70,-4.59,
2.515,31.63,-11.89,15.18,3.21,-1.70,-4.59,
2.516,31.63,-11.89,15.18,3.38,-1.66,-4.82,
2.516,31.63,-11.89,15.18,3.55,-1.57,-5.10,
2.517,33.30,-13.53,15.09,3.55,-1.57,-5.10,
2.517,34.65,-15.27,14.86,3.55,-1.57,-5.10,
2.518,34.65,-15.27,14.86,3.72,-1.44,-5.43,
2.518,34.65,-15.27,14.86,3.89,-1.27,-5.80,
2.519,35.64,-16.94,14.43,3.89,-1.27,-5.80,
2.519,36.23,-18.60,13.78,3.89,-1.27,-5.80,
2.52,36.23,-18.60,13.78,4.05,-1.08,-6.19,
2.52,36.24,-20.11,12.95,4.05,-1.08,-6.19,
2.521,36.24,-20.11,12.95,4.20,-0.87,-6.59,
2.521,35.92,-21.59,12.11,4.20,-0.87,-6.59,
2.522,35.92,-21.59,12.11,4.32,-0.65,-6.98,
2.522,35.92,-21.59,12.11,4.42,-0.44,-7.37,
2.523,35.59,-23.19,11.24,4.42,-0.44,-7.37,
2.523,35.59,-23.19,11.24,4.51,-0.24,-7.74,
2.524,35.24,-24.87,10.39,4.51,-0.24,-7.74,
2.524,34.87,-26.66,9.60,4.51,-0.24,-7.74,
2.525,34.87,-26.66,9.60,4.58,-0.07,-8.08,
2.525,34.87,-26.66,9.60,4.64,0.09,-8.41,
2.526,34.50,-28.50,8.87,4.64,0.09,-8.41,
2.526,34.50,-28.50,8.87,4.71,0.22,-8.71,
2.527,34.12,-30.31,8.12,4.71,0.22,-8.71,
2.527,33.73,-31.47,7.40,4.71,0.22,-8.71,
2.527,33.73,-31.47,7.40,4.77,0.33,-8.99,
2.528,33.73,-31.47,7.40,4.82,0.38,-9.24,
2.528,33.34,-31.65,6.60,4.82,0.38,-9.24,
2.529,32.95,-31.85,5.80,4.82,0.38,-9.24,
2.529,32.95,-31.85,5.80,4.85,0.37,-9.45,
2.53,32.57,-32.08,4.98,4.85,0.37,-9.45,
2.53,32.57,-32.08,4.98,4.85,0.30,-9.61,
2.531,32.19,-32.33,4.21,4.85,0.30,-9.61,
2.531,32.19,-32.33,4.21,4.81,0.19,-9.74,
2.532,32.19,-32.33,4.21,4.72,0.06,-9.84,
2.532,31.83,-32.62,3.60,4.72,0.06,-9.84,
2.555,31.48,-32.92,3.11,4.72,0.06,-9.84,
2.555,31.48,-32.92,3.11,4.61,-0.03,-9.92,
2.556,31.48,-32.92,3.11,4.46,-0.05,-9.99,
2.556,31.14,-33.25,2.69,4.46,-0.05,-9.99,
2.557,30.82,-33.60,2.23,4.46,-0.05,-9.99,
2.557,30.82,-33.60,2.23,4.30,0.01,-10.05,
2.557,30.82,-33.60,2.23,4.12,0.13,-10.10,
2.558,30.52,-33.97,1.93,4.12,0.13,-10.10,
2.558,30.23,-34.35,1.73,4.12,0.13,-10.10,
2.559,30.23,-34.35,1.73,3.95,0.30,-10.17,
2.559,29.96,-34.76,1.49,3.95,0.30,-10.17,
2.56,29.96,-34.76,1.49,3.79,0.53,-10.24,
2.565,29.96,-34.76,1.49,3.64,0.79,-10.34,
2.565,29.70,-35.19,1.11,3.64,0.79,-10.34,
2.573,29.48,-35.63,0.59,3.64,0.79,-10.34,
2.574,29.48,-35.63,0.59,3.49,1.06,-10.45,
2.575,29.48,-35.63,0.59,3.33,1.35,-10.57,
2.575,29.27,-36.10,-0.05,3.33,1.35,-10.57,
2.58,29.27,-36.10,-0.05,3.16,1.62,-10.68,
2.58,29.08,-36.58,-0.83,3.16,1.62,-10.68,
2.614,29.08,-36.58,-0.83,2.98,1.87,-10.78,
2.614,28.92,-37.07,-1.67,2.98,1.87,-10.78,
2.615,28.92,-37.07,-1.67,2.77,2.10,-10.87,
2.615,28.79,-37.58,-2.42,2.77,2.10,-10.87,
2.616,28.79,-37.58,-2.42,2.53,2.31,-10.93,
2.616,28.69,-38.10,-3.06,2.53,2.31,-10.93,
2.617,28.62,-38.62,-3.43,2.53,2.31,-10.93,
2.617,28.62,-38.62,-3.43,2.28,2.51,-10.97,
2.617,28.58,-39.15,-3.58,2.28,2.51,-10.97,
2.618,28.58,-39.15,-3.58,2.02,2.70,-10.97,
2.618,28.58,-39.15,-3.58,1.78,2.89,-10.94,
2.619,28.57,-39.68,-3.52,1.78,2.89,-10.94,
2.619,28.57,-39.68,-3.52,1.56,3.06,-10.86,
2.619,27.41,-40.20,-3.29,1.56,3.06,-10.86,
2.62,27.41,-40.20,-3.29,1.38,3.22,-10.73,
2.62,25.26,-40.71,-2.92,1.38,3.22,-10.73,
2.633,25.26,-40.71,-2.92,1.24,3.34,-10.54,
2.634,23.28,-41.21,-2.53,1.24,3.34,-10.54,
2.634,23.28,-41.21,-2.53,1.14,3.44,-10.32,
2.635,21.45,-41.69,-2.17,1.14,3.44,-10.32,
2.635,19.65,-42.15,-1.87,1.14,3.44,-10.32,
2.635,19.65,-42.15,-1.87,1.09,3.51,-10.06,
2.636,17.93,-42.33,-1.63,1.09,3.51,-10.06,
2.636,17.93,-42.33,-1.63,1.08,3.54,-9.77,
2.645,16.28,-41.00,-1.16,1.08,3.54,-9.77,
2.646,16.28,-41.00,-1.16,1.11,3.53,-9.46,
2.646,14.90,-39.75,-0.82,1.11,3.53,-9.46,
2.647,14.90,-39.75,-0.82,1.18,3.51,-9.14,
2.676,13.36,-38.62,-1.12,1.18,3.51,-9.14,
2.677,13.36,-38.62,-1.12,1.30,3.44,-8.82,
2.677,11.78,-37.44,-1.41,1.30,3.44,-8.82,
2.678,11.78,-37.44,-1.41,1.37,3.25,-8.46,
2.678,11.78,-37.44,-1.41,1.39,3.03,-8.10,
2.679,10.45,-36.11,-1.61,1.39,3.03,-8.10,
2.68,9.40,-34.71,-1.77,1.39,3.03,-8.10,
2.68,9.40,-34.71,-1.77,1.40,2.85,-7.73,
2.681,9.40,-34.71,-1.77,1.41,2.70,-7.39,
2.681,8.49,-33.35,-1.77,1.41,2.70,-7.39,
2.682,8.49,-33.35,-1.77,1.43,2.56,-7.08,
2.682,7.65,-32.07,-1.65,1.43,2.56,-7.08,
2.683,7.65,-32.07,-1.65,1.44,2.40,-6.79,
2.683,6.94,-30.87,-1.40,1.44,2.40,-6.79,
2.693,6.24,-29.80,-1.11,1.44,2.40,-6.79,
2.693,6.24,-29.80,-1.11,1.46,2.23,-6.51,
2.694,5.63,-28.79,-0.80,1.46,2.23,-6.51,
2.694,5.63,-28.79,-0.80,1.50,2.03,-6.26,
2.694,5.16,-27.89,-0.47,1.50,2.03,-6.26,
2.695,5.16,-27.89,-0.47,1.54,1.83,-6.02,
2.76,4.68,-27.00,-0.12,1.54,1.83,-6.02,
2.761,4.68,-27.00,-0.12,1.59,1.63,-5.79,
2.761,4.27,-26.16,0.24,1.59,1.63,-5.79,
2.762,4.27,-26.16,0.24,1.66,1.43,-5.58,
2.762,3.80,-25.43,0.50,1.66,1.43,-5.58,
2.763,3.80,-25.43,0.50,1.74,1.26,-5.39,
2.763,3.80,-25.43,0.50,1.83,1.08,-5.21,
2.764,3.35,-24.70,0.73,1.83,1.08,-5.21,
2.764,3.35,-24.70,0.73,1.92,0.90,-5.04,
2.765,2.97,-23.99,0.94,1.92,0.90,-5.04,
2.765,2.54,-23.39,1.13,1.92,0.90,-5.04,
2.765,2.54,-23.39,1.13,2.02,0.73,-4.87,
2.766,2.14,-22.86,1.33,2.02,0.73,-4.87,
2.766,2.14,-22.86,1.33,2.11,0.56,-4.71,
2.767,1.81,-22.30,1.51,2.11,0.56,-4.71,
2.767,1.81,-22.30,1.51,2.21,0.40,-4.54,
2.768,1.61,-21.72,1.64,2.21,0.40,-4.54,
2.768,1.61,-21.72,1.64,2.31,0.25,-4.38,
2.768,1.61,-21.72,1.64,2.40,0.10,-4.23,
2.769,1.52,-21.19,1.71,2.40,0.10,-4.23,
2.769,1.52,-21.19,1.71,2.48,-0.06,-4.10,
2.77,1.48,-20.67,1.71,2.48,-0.06,-4.10,
2.77,1.48,-20.67,1.71,2.56,-0.20,-3.98,
2.771,1.35,-20.27,1.57,2.56,-0.20,-3.98,
2.771,1.35,-20.27,1.57,2.62,-0.34,-3.88,
2.772,1.11,-19.96,1.35,2.62,-0.34,-3.88,
2.772,1.11,-19.96,1.35,2.66,-0.47,-3.80,
2.773,0.83,-19.68,1.05,2.66,-0.47,-3.80,
2.773,0.54,-19.39,0.81,2.66,-0.47,-3.80,
2.773,0.54,-19.39,0.81,2.69,-0.60,-3.72,
2.774,0.32,-19.10,0.66,2.69,-0.60,-3.72,
2.774,0.32,-19.10,0.66,2.70,-0.73,-3.64,
2.79,0.15,-18.80,0.63,2.70,-0.73,-3.64,
2.79,0.15,-18.80,0.63,2.70,-0.88,-3.57,
2.791,0.01,-18.57,0.74,2.70,-0.88,-3.57,
2.791,0.01,-18.57,0.74,2.71,-1.02,-3.50,
2.792,-0.02,-18.45,0.94,2.71,-1.02,-3.50,
2.792,-0.02,-18.45,0.94,2.72,-1.17,-3.43,
2.793,-0.02,-18.45,0.94,2.75,-1.29,-3.38,
2.793,-0.05,-18.47,1.22,2.75,-1.29,-3.38,
2.799,-0.05,-18.47,1.22,2.80,-1.40,-3.34,
2.799,-0.09,-18.55,1.56,2.80,-1.40,-3.34,
2.802,-0.09,-18.55,1.56,2.89,-1.49,-3.32,
2.803,-0.17,-18.60,1.92,2.89,-1.49,-3.32,
2.807,-0.41,-18.61,2.29,2.89,-1.49,-3.32,
2.807,-0.41,-18.61,2.29,3.01,-1.57,-3.32,
2.811,-0.60,-18.49,2.57,3.01,-1.57,-3.32,
2.811,-0.60,-18.49,2.57,3.16,-1.66,-3.34,
2.821,-0.60,-18.49,2.57,3.33,-1.73,-3.36,
2.822,-0.92,-18.36,2.73,3.33,-1.73,-3.36,
2.823,-0.92,-18.36,2.73,3.52,-1.79,-3.39,
2.824,-1.35,-18.27,2.71,3.52,-1.79,-3.39,
2.985,-1.35,-18.27,2.71,3.71,-1.85,-3.42,
2.985,-1.92,-18.17,2.52,3.71,-1.85,-3.42,
2.986,-2.58,-17.96,2.05,3.71,-1.85,-3.42,
2.987,-2.58,-17.96,2.05,3.88,-1.89,-3.44,
2.987,-3.35,-17.76,1.39,3.88,-1.89,-3.44,
2.988,-3.35,-17.76,1.39,4.01,-1.91,-3.44,
2.988,-4.07,-17.63,0.67,4.01,-1.91,-3.44,
2.989,-4.07,-17.63,0.67,4.09,-1.93,-3.43,
2.99,-4.07,-17.63,0.67,4.09,-1.92,-3.38,
2.99,-4.75,-17.54,-0.13,4.09,-1.92,-3.38,
2.991,-4.75,-17.54,-0.13,4.03,-1.88,-3.31,
2.991,-5.35,-17.44,-0.83,4.03,-1.88,-3.31,
2.992,-5.35,-17.44,-0.83,3.92,-1.84,-3.21,
2.992,-5.85,-17.32,-1.50,3.92,-1.84,-3.21,
2.993,-6.21,-17.09,-2.05,3.92,-1.84,-3.21,
2.993,-6.21,-17.09,-2.05,3.74,-1.77,-3.07,
2.994,-6.44,-16.86,-2.50,3.74,-1.77,-3.07,
2.994,-6.44,-16.86,-2.50,3.52,-1.68,-2.90,
2.995,-6.44,-16.86,-2.50,3.25,-1.57,-2.70,
2.996,-6.64,-16.58,-2.83,3.25,-1.57,-2.70,
2.996,-6.64,-16.58,-2.83,2.96,-1.44,-2.47,
2.997,-6.74,-16.31,-2.95,2.96,-1.44,-2.47,
2.998,-6.71,-16.04,-2.97,2.96,-1.44,-2.47,
2.998,-6.71,-16.04,-2.97,2.64,-1.30,-2.24,
2.999,-6.53,-15.81,-2.89,2.64,-1.30,-2.24,
2.999,-6.53,-15.81,-2.89,2.32,-1.15,-1.99,
3.0,-6.22,-15.54,-2.64,2.32,-1.15,-1.99,
3.0,-6.22,-15.54,-2.64,2.00,-1.00,-1.76,
3.001,-5.87,-15.27,-2.31,2.00,-1.00,-1.76,
3.002,-5.87,-15.27,-2.31,1.70,-0.85,-1.54,
3.002,-5.39,-15.03,-1.95,1.70,-0.85,-1.54,
3.003,-5.39,-15.03,-1.95,1.42,-0.71,-1.33,
3.003,-5.39,-15.03,-1.95,1.15,-0.57,-1.15,
3.004,-4.90,-14.89,-1.50,1.15,-0.57,-1.15,
3.004,-4.37,-14.85,-1.04,1.15,-0.57,-1.15,
3.005,-4.37,-14.85,-1.04,0.92,-0.45,-1.00,
3.005,-3.90,-14.91,-0.55,0.92,-0.45,-1.00,
3.006,-3.90,-14.91,-0.55,0.72,-0.32,-0.88,
3.006,-3.90,-14.91,-0.55,0.55,-0.21,-0.77,
3.007,-3.53,-14.98,-0.07,0.55,-0.21,-0.77,
3.008,-3.53,-14.98,-0.07,0.41,-0.13,-0.68,
3.008,-3.17,-15.11,0.39,0.41,-0.13,-0.68,
3.009,-3.17,-15.11,0.39,0.31,-0.06,-0.60,
3.009,-2.83,-15.22,0.89,0.31,-0.06,-0.60,
3.01,-2.83,-15.22,0.89,0.24,-0.01,-0.53,
3.01,-2.60,-15.30,1.33,0.24,-0.01,-0.53,
3.011,-2.47,-15.35,1.74,0.24,-0.01,-0.53,
3.011,-2.47,-15.35,1.74,0.20,0.03,-0.46,
3.012,-2.44,-15.36,2.09,0.20,0.03,-0.46,
3.012,-2.44,-15.36,2.09,0.18,0.05,-0.40,
3.013,-2.49,-15.33,2.33,0.18,0.05,-0.40,
3.013,-2.49,-15.33,2.33,0.19,0.05,-0.34,
3.014,-2.49,-15.33,2.33,0.21,0.05,-0.28,
3.014,-2.57,-15.36,2.48,0.21,0.05,-0.28,
3.014,-2.65,-15.34,2.57,0.21,0.05,-0.28,
3.015,-2.65,-15.34,2.57,0.24,0.03,-0.21,
3.016,-2.74,-15.36,2.65,0.24,0.03,-0.21,
3.016,-2.74,-15.36,2.65,0.27,0.02,-0.14,
3.016,-2.74,-15.36,2.65,0.30,0.02,-0.07,
3.017,-2.79,-15.45,2.61,0.30,0.02,-0.07,
3.017,-2.79,-15.45,2.61,0.33,0.03,-0.00,
3.017,-2.87,-15.47,2.56,0.33,0.03,-0.00,
3.018,-2.87,-15.47,2.56,0.36,0.04,0.07,
3.018,-2.92,-15.56,2.45,0.36,0.04,0.07,
3.019,-2.92,-15.56,2.45,0.37,0.07,0.14,
3.019,-3.04,-15.68,2.27,0.37,0.07,0.14,
3.019,-3.22,-15.81,2.04,0.37,0.07,0.14,
3.02,-3.22,-15.81,2.04,0.38,0.10,0.20,
3.02,-3.22,-15.81,2.04,0.38,0.13,0.28,
3.02,-3.47,-15.97,1.80,0.38,0.13,0.28,
3.021,-3.47,-15.97,1.80,0.36,0.17,0.37,
3.021,-3.78,-16.13,1.41,0.36,0.17,0.37,
3.021,-3.78,-16.13,1.41,0.31,0.19,0.47,
3.022,-4.15,-16.32,1.08,0.31,0.19,0.47,
3.022,-4.49,-16.45,0.78,0.31,0.19,0.47,
3.023,-4.49,-16.45,0.78,0.25,0.22,0.60,
3.023,-4.79,-16.57,0.48,0.25,0.22,0.60,
3.023,-4.79,-16.57,0.48,0.16,0.24,0.75,
3.024,-4.94,-16.79,0.28,0.16,0.24,0.75,
3.024,-4.94,-16.79,0.28,0.06,0.27,0.92,
3.024,-4.99,-16.98,0.19,0.06,0.27,0.92,
3.025,-4.99,-16.98,0.19,-0.06,0.28,1.12,
3.173,-4.89,-17.22,0.11,-0.06,0.28,1.12,
3.174,-4.89,-17.22,0.11,-0.19,0.30,1.33,
3.174,-4.68,-17.45,0.18,-0.19,0.30,1.33,
3.175,-4.68,-17.45,0.18,-0.33,0.31,1.56,
3.175,-4.42,-17.70,0.21,-0.33,0.31,1.56,
3.175,-4.42,-17.70,0.21,-0.47,0.33,1.79,
3.176,-4.10,-17.93,0.31,-0.47,0.33,1.79,
3.176,-4.10,-17.93,0.31,-0.60,0.35,2.02,
3.177,-3.77,-18.12,0.42,-0.60,0.35,2.02,
3.177,-3.77,-18.12,0.42,-0.73,0.39,2.24,
3.177,-3.36,-18.33,0.57,-0.73,0.39,2.24,
3.178,-3.36,-18.33,0.57,-0.86,0.43,2.45,
3.178,-2.97,-18.59,0.78,-0.86,0.43,2.45,
3.179,-2.97,-18.59,0.78,-0.98,0.47,2.66,
3.179,-2.67,-18.90,0.90,-0.98,0.47,2.66,
3.179,-2.67,-18.90,0.90,-1.10,0.52,2.84,
3.18,-2.44,-19.19,1.01,-1.10,0.52,2.84,
3.18,-2.44,-19.19,1.01,-1.20,0.57,3.03,
3.257,-2.24,-19.55,1.18,-1.20,0.57,3.03,
3.258,-2.24,-19.55,1.18,-1.30,0.62,3.21,
3.259,-2.01,-19.97,1.30,-1.30,0.62,3.21,
3.259,-2.01,-19.97,1.30,-1.40,0.67,3.39,
3.26,-1.82,-20.55,1.44,-1.40,0.67,3.39,
3.261,-1.82,-20.55,1.44,-1.49,0.71,3.58,
3.261,-1.68,-21.17,1.55,-1.49,0.71,3.58,
3.262,-1.68,-21.17,1.55,-1.57,0.76,3.77,
3.263,-1.63,-21.82,1.69,-1.57,0.76,3.77,
3.263,-1.63,-21.82,1.69,-1.64,0.80,3.98,
3.264,-1.53,-22.45,1.81,-1.64,0.80,3.98,
3.265,-1.53,-22.45,1.81,-1.71,0.84,4.20,
3.266,-1.35,-23.09,1.93,-1.71,0.84,4.20,
3.266,-1.35,-23.09,1.93,-1.77,0.86,4.43,
3.267,-1.24,-23.80,2.01,-1.77,0.86,4.43,
3.268,-1.24,-23.80,2.01,-1.83,0.88,4.69,
3.268,-1.06,-24.59,2.05,-1.83,0.88,4.69,
3.269,-1.06,-24.59,2.05,-1.89,0.87,4.98,
3.27,-0.77,-25.44,2.05,-1.89,0.87,4.98,
3.271,-0.77,-25.44,2.05,-1.95,0.85,5.29,
3.271,-0.49,-26.28,2.03,-1.95,0.85,5.29,
3.272,-0.49,-26.28,2.03,-2.01,0.84,5.63,
3.273,-0.49,-26.28,2.03,-2.09,0.85,5.98,
3.273,-0.18,-27.02,2.06,-2.09,0.85,5.98,
3.274,0.25,-27.77,2.05,-2.09,0.85,5.98,
3.274,0.25,-27.77,2.05,-2.19,0.86,6.35,
3.275,0.25,-27.77,2.05,-2.30,0.88,6.74,
3.275,0.75,-28.70,2.07,-2.30,0.88,6.74,
3.276,1.34,-29.81,2.10,-2.30,0.88,6.74,
3.276,1.34,-29.81,2.10,-2.43,0.92,7.14,
3.277,2.04,-31.00,2.14,-2.43,0.92,7.14,
3.277,2.04,-31.00,2.14,-2.58,0.99,7.56,
3.277,2.04,-31.00,2.14,-2.76,1.08,8.00,
3.278,2.80,-32.17,2.27,-2.76,1.08,8.00,
3.278,3.77,-33.25,2.48,-2.76,1.08,8.00,
3.279,3.77,-33.25,2.48,-2.97,1.21,8.45,
3.279,3.77,-33.25,2.48,-3.20,1.35,8.90,
3.28,4.81,-34.28,2.82,-3.20,1.35,8.90,
3.28,5.97,-35.42,3.17,-3.20,1.35,8.90,
3.281,5.97,-35.42,3.17,-3.44,1.50,9.35,
3.281,5.97,-35.42,3.17,-3.69,1.66,9.79,
3.282,7.41,-36.59,3.49,-3.69,1.66,9.79,
3.282,9.22,-37.78,3.72,-3.69,1.66,9.79,
3.283,9.22,-37.78,3.72,-3.96,1.83,10.21,
3.283,9.22,-37.78,3.72,-4.23,1.97,10.59,
3.284,11.48,-38.99,3.89,-4.23,1.97,10.59,
3.285,11.48,-38.99,3.89,-4.51,2.08,10.91,
3.285,13.74,-40.11,4.12,-4.51,2.08,10.91,
3.286,13.74,-40.11,4.12,-4.78,2.11,11.15,
3.287,16.08,-41.07,4.44,-4.78,2.11,11.15,
3.287,16.08,-41.07,4.44,-5.03,2.08,11.31,
3.288,18.05,-41.84,4.81,-5.03,2.08,11.31,
3.289,18.05,-41.84,4.81,-5.23,1.95,11.40,
3.289,19.94,-42.44,5.45,-5.23,1.95,11.40,
3.29,19.94,-42.44,5.45,-5.36,1.75,11.43,
3.291,22.09,-42.14,6.38,-5.36,1.75,11.43,
3.291,22.09,-42.14,6.38,-5.40,1.48,11.35,
3.292,24.25,-41.62,7.42,-5.40,1.48,11.35,
3.293,24.25,-41.62,7.42,-5.34,1.14,11.20,
3.293,25.89,-41.10,8.36,-5.34,1.14,11.20,
3.294,26.97,-40.57,9.11,-5.34,1.14,11.20,
3.295,26.97,-40.57,9.11,-5.18,0.71,11.01,
3.295,27.79,-40.05,9.62,-5.18,0.71,11.01,
3.296,27.79,-40.05,9.62,-4.96,0.23,10.84,
3.297,27.79,-40.05,9.62,-4.68,-0.24,10.71,
3.297,28.45,-39.54,9.68,-4.68,-0.24,10.71,
3.298,28.92,-39.02,9.32,-4.68,-0.24,10.71,
3.299,28.92,-39.02,9.32,-4.37,-0.67,10.62,
3.3,28.92,-39.02,9.32,-4.06,-1.04,10.58,
3.3,29.17,-38.51,8.88,-4.06,-1.04,10.58,
3.301,29.35,-38.00,8.45,-4.06,-1.04,10.58,
3.302,29.35,-38.00,8.45,-3.78,-1.38,10.62,
3.302,29.53,-37.49,8.19,-3.78,-1.38,10.62,
3.303,29.53,-37.49,8.19,-3.53,-1.66,10.74,
3.304,29.84,-36.97,8.22,-3.53,-1.66,10.74,
3.305,29.84,-36.97,8.22,-3.30,-1.92,10.93,
3.305,30.52,-36.46,8.42,-3.30,-1.92,10.93,
3.306,30.52,-36.46,8.42,-3.07,-2.14,11.16,
3.307,30.52,-36.46,8.42,-2.82,-2.35,11.41,
3.307,30.98,-35.94,8.42,-2.82,-2.35,11.41,
3.308,30.98,-35.94,8.42,-2.57,-2.55,11.63,
3.309,31.13,-35.43,8.15,-2.57,-2.55,11.63,
3.31,31.32,-34.92,7.52,-2.57,-2.55,11.63,
3.31,31.32,-34.92,7.52,-2.34,-2.75,11.77,
3.311,31.32,-34.92,7.52,-2.16,-2.93,11.82,
3.312,31.54,-34.42,6.63,-2.16,-2.93,11.82,
3.313,31.54,-34.42,6.63,-2.04,-3.09,11.77,
3.313,31.78,-33.95,5.70,-2.04,-3.09,11.77,
3.314,31.78,-33.95,5.70,-1.99,-3.21,11.65,
3.314,32.05,-33.49,4.99,-1.99,-3.21,11.65,
3.315,32.05,-33.49,4.99,-2.03,-3.31,11.51,
3.316,32.35,-33.06,4.61,-2.03,-3.31,11.51,
3.316,32.35,-33.06,4.61,-2.13,-3.36,11.34,
3.317,32.66,-32.65,4.69,-2.13,-3.36,11.34,
3.317,32.66,-32.65,4.69,-2.27,-3.37,11.13,
3.318,33.00,-32.26,5.57,-2.27,-3.37,11.13,
3.318,33.00,-32.26,5.57,-2.39,-3.32,10.82,
3.319,33.34,-30.87,7.49,-2.39,-3.32,10.82,
3.319,33.34,-30.87,7.49,-2.44,-3.17,10.41,
3.32,33.69,-28.26,9.82,-2.44,-3.17,10.41,
3.351,34.04,-25.78,12.15,-2.44,-3.17,10.41,
3.351,34.04,-25.78,12.15,-2.37,-2.97,9.92,
3.352,34.04,-25.78,12.15,-2.20,-2.75,9.42,
3.352,34.38,-23.69,14.05,-2.20,-2.75,9.42,
3.353,34.38,-23.69,14.05,-1.93,-2.51,8.95,
3.353,34.71,-21.90,15.23,-1.93,-2.51,8.95,
3.354,34.71,-21.90,15.23,-1.61,-2.24,8.53,
3.354,35.03,-20.15,15.51,-1.61,-2.24,8.53,
3.355,35.03,-20.15,15.51,-1.27,-1.98,8.11,
3.355,35.35,-18.42,14.85,-1.27,-1.98,8.11,
3.355,35.35,-18.42,14.85,-0.97,-1.76,7.67,
3.356,35.64,-17.37,14.14,-0.97,-1.76,7.67,
3.356,35.64,-17.37,14.14,-0.71,-1.51,7.19,
3.357,35.92,-16.78,13.84,-0.71,-1.51,7.19,
3.357,35.92,-16.78,13.84,-0.48,-1.24,6.70,
3.357,36.09,-16.34,13.78,-0.48,-1.24,6.70,
3.358,35.65,-15.97,13.71,-0.48,-1.24,6.70,
3.358,35.65,-15.97,13.71,-0.26,-0.97,6.24,
3.359,35.12,-15.74,13.50,-0.26,-0.97,6.24,
3.359,35.12,-15.74,13.50,-0.04,-0.71,5.81,
3.423,34.44,-15.60,13.07,-0.04,-0.71,5.81,
3.424,34.44,-15.60,13.07,0.19,-0.45,5.41,
3.425,33.69,-15.44,12.42,0.19,-0.45,5.41,
3.426,33.69,-15.44,12.42,0.42,-0.19,5.07,
3.426,33.69,-15.44,12.42,0.67,0.08,4.78,
3.427,32.94,-15.18,11.60,0.67,0.08,4.78,
3.427,32.94,-15.18,11.60,0.90,0.38,4.54,
3.428,32.16,-14.69,10.54,0.90,0.38,4.54,
3.428,31.22,-14.02,9.22,0.90,0.38,4.54,
3.429,31.22,-14.02,9.22,1.11,0.72,4.36,
3.429,30.07,-13.16,7.57,1.11,0.72,4.36,
3.43,30.07,-13.16,7.57,1.29,1.06,4.23,
3.43,28.90,-12.00,5.69,1.29,1.06,4.23,
3.431,28.90,-12.00,5.69,1.42,1.44,4.15,
3.431,27.58,-10.73,3.65,1.42,1.44,4.15,
3.432,27.58,-10.73,3.65,1.47,1.81,4.09,
3.432,24.94,-10.25,1.70,1.47,1.81,4.09,
3.433,24.94,-10.25,1.70,1.43,2.18,4.07,
3.433,23.63,-8.65,-0.05,1.43,2.18,4.07,
3.434,23.63,-8.65,-0.05,1.31,2.57,4.13,
3.435,23.63,-8.65,-0.05,1.10,2.92,4.20,
3.435,22.36,-7.19,-1.69,1.10,2.92,4.20,
3.435,22.36,-7.19,-1.69,0.80,3.23,4.28,
3.436,21.75,-5.62,-3.16,0.80,3.23,4.28,
3.436,21.75,-5.62,-3.16,0.42,3.44,4.33,
3.437,21.26,-4.24,-4.48,0.42,3.44,4.33,
3.437,21.26,-4.24,-4.48,-0.01,3.53,4.34,
3.437,20.70,-3.13,-5.51,-0.01,3.53,4.34,
3.438,20.18,-2.16,-6.07,-0.01,3.53,4.34,
3.438,20.18,-2.16,-6.07,-0.47,3.50,4.33,
3.439,19.71,-1.29,-6.17,-0.47,3.50,4.33,
3.439,19.71,-1.29,-6.17,-0.94,3.39,4.28,
3.575,19.71,-1.29,-6.17,-1.40,3.20,4.22,
3.576,19.32,-0.46,-5.59,-1.40,3.20,4.22,
3.576,19.03,0.34,-4.45,-1.40,3.20,4.22,
3.576,19.03,0.34,-4.45,-1.83,2.94,4.14,
3.576,18.90,1.07,-2.91,-1.83,2.94,4.14,
3.577,18.90,1.07,-2.91,-2.19,2.63,4.06,
3.577,18.90,1.07,-2.91,-2.46,2.30,3.97,
3.577,18.94,1.71,-1.24,-2.46,2.30,3.97,
3.578,18.94,1.71,-1.24,-2.64,1.97,3.88,
3.578,19.07,2.15,0.39,-2.64,1.97,3.88,
3.578,19.07,2.15,0.39,-2.73,1.67,3.79,
3.579,19.23,2.48,1.80,-2.73,1.67,3.79,
3.579,19.41,2.89,3.03,-2.73,1.67,3.79,
3.579,19.41,2.89,3.03,-2.75,1.39,3.70,
3.58,19.41,2.89,3.03,-2.72,1.15,3.60,
3.58,19.59,3.38,4.03,-2.72,1.15,3.60,
3.58,19.59,3.38,4.03,-2.65,0.97,3.49,
3.581,19.74,3.82,4.58,-2.65,0.97,3.49,
3.581,19.90,4.35,5.01,-2.65,0.97,3.49,
3.581,19.90,4.35,5.01,-2.57,0.82,3.37,
3.582,20.13,4.89,5.43,-2.57,0.82,3.37,
3.582,20.13,4.89,5.43,-2.50,0.75,3.26,
3.582,20.31,5.42,5.64,-2.50,0.75,3.26,
3.583,20.31,5.42,5.64,-2.41,0.78,3.12,
3.583,20.32,5.96,5.70,-2.41,0.78,3.12,
3.583,20.32,5.96,5.70,-2.34,0.87,2.96,
3.584,20.32,5.96,5.70,-2.30,1.01,2.80,
3.584,20.14,6.45,5.62,-2.30,1.01,2.80,
3.584,20.14,6.45,5.62,-2.29,1.17,2.65,
3.585,19.46,6.78,6.19,-2.29,1.17,2.65,
3.585,19.46,6.78,6.19,-2.30,1.37,2.52,
3.585,18.75,7.28,6.60,-2.30,1.37,2.52,
3.586,18.75,7.28,6.60,-2.31,1.57,2.42,
3.586,18.53,7.76,6.12,-2.31,1.57,2.42,
3.586,18.53,7.76,6.12,-2.36,1.73,2.34,
3.587,18.61,8.23,5.64,-2.36,1.73,2.34,
3.587,18.61,8.23,5.64,-2.45,1.87,2.25,
3.587,18.48,8.65,5.70,-2.45,1.87,2.25,
3.587,18.48,8.65,5.70,-2.55,2.00,2.17,
3.588,18.30,9.08,6.32,-2.55,2.00,2.17,
3.588,18.29,9.43,7.12,-2.55,2.00,2.17,
3.588,18.29,9.43,7.12,-2.62,2.09,2.07,
3.589,18.57,9.71,7.69,-2.62,2.09,2.07,
3.589,18.57,9.71,7.69,-2.66,2.15,1.98,
3.589,18.57,9.71,7.69,-2.65,2.18,1.87,
3.59,18.92,9.83,8.25,-2.65,2.18,1.87,
3.59,19.17,9.91,8.83,-2.65,2.18,1.87,
3.59,19.17,9.91,8.83,-2.61,2.20,1.74,
3.621,19.17,9.91,8.83,-2.51,2.21,1.60,
3.621,19.45,10.00,9.55,-2.51,2.21,1.60,
3.622,19.45,10.00,9.55,-2.37,2.20,1.45,
3.622,19.67,10.24,10.14,-2.37,2.20,1.45,
3.623,19.80,10.51,10.57,-2.37,2.20,1.45,
3.623,19.80,10.51,10.57,-2.18,2.18,1.28,
3.624,19.62,10.91,10.82,-2.18,2.18,1.28,
3.624,19.62,10.91,10.82,-1.96,2.13,1.10,
3.625,19.36,11.25,10.80,-1.96,2.13,1.10,
3.625,19.36,11.25,10.80,-1.71,2.05,0.91,
3.626,19.00,11.46,10.58,-1.71,2.05,0.91,
3.626,19.00,11.46,10.58,-1.45,1.94,0.73,
3.627,18.65,11.61,10.23,-1.45,1.94,0.73,
3.627,18.65,11.61,10.23,-1.20,1.80,0.57,
3.628,18.36,11.73,9.88,-1.20,1.80,0.57,
3.628,18.36,11.73,9.88,-0.96,1.63,0.42,
3.628,18.15,11.81,9.58,-0.96,1.63,0.42,
3.629,18.15,11.81,9.58,-0.73,1.43,0.28,
3.629,18.15,11.81,9.58,-0.53,1.22,0.15,
3.63,18.03,11.86,9.33,-0.53,1.22,0.15,
3.63,18.03,11.86,9.33,-0.33,0.99,0.02,
3.631,17.92,11.84,9.20,-0.33,0.99,0.02,
3.631,17.92,11.84,9.20,-0.14,0.75,-0.11,
3.632,17.81,11.84,9.15,-0.14,0.75,-0.11,
3.632,17.81,11.84,9.15,0.04,0.50,-0.24,
3.633,17.80,11.74,9.13,0.04,0.50,-0.24,
3.633,17.73,11.66,9.15,0.04,0.50,-0.24,
3.633,17.73,11.66,9.15,0.22,0.27,-0.37,
3.634,17.75,11.50,9.17,0.22,0.27,-0.37,
3.634,17.75,11.50,9.17,0.40,0.04,-0.50,
3.635,17.78,11.33,9.15,0.40,0.04,-0.50,
3.635,17.78,11.33,9.15,0.58,-0.17,-0.64,
3.636,17.80,11.08,9.17,0.58,-0.17,-0.64,
3.636,17.80,11.08,9.17,0.75,-0.37,-0.79,
3.654,17.82,10.82,9.05,0.75,-0.37,-0.79,
3.654,17.82,10.82,9.05,0.93,-0.56,-0.94,
3.655,17.80,10.42,8.91,0.93,-0.56,-0.94,
3.655,17.80,10.42,8.91,1.09,-0.71,-1.10,
3.656,17.81,9.95,8.65,1.09,-0.71,-1.10,
3.656,17.81,9.95,8.65,1.23,-0.85,-1.26,
3.657,17.87,9.41,8.41,1.23,-0.85,-1.26,
3.657,17.87,9.41,8.41,1.36,-0.97,-1.42,
3.712,17.90,8.88,8.22,1.36,-0.97,-1.42,
3.713,17.90,8.88,8.22,1.48,-1.09,-1.58,
3.713,17.98,8.31,8.04,1.48,-1.09,-1.58,
3.716,17.98,8.31,8.04,1.57,-1.20,-1.73,
3.717,18.08,7.75,7.89,1.57,-1.20,-1.73,
3.717,18.08,7.75,7.89,1.66,-1.31,-1.88,
3.718,18.21,7.19,7.72,1.66,-1.31,-1.88,
3.718,18.21,7.19,7.72,1.73,-1.41,-2.02,
3.718,18.46,6.61,7.60,1.73,-1.41,-2.02,
3.719,18.46,6.61,7.60,1.80,-1.52,-2.16,
3.719,18.78,6.00,7.35,1.80,-1.52,-2.16,
3.72,18.78,6.00,7.35,1.86,-1.64,-2.30,
3.72,19.14,5.35,7.15,1.86,-1.64,-2.30,
3.72,19.14,5.35,7.15,1.90,-1.76,-2.44,
3.721,19.55,4.65,7.04,1.90,-1.76,-2.44,
3.721,19.55,4.65,7.04,1.92,-1.90,-2.59,
3.721,20.04,3.89,6.99,1.92,-1.90,-2.59,
3.722,20.04,3.89,6.99,1.94,-2.04,-2.74,
3.722,20.54,3.13,7.01,1.94,-2.04,-2.74,
3.722,20.54,3.13,7.01,1.94,-2.18,-2.89,
3.723,21.14,2.36,7.05,1.94,-2.18,-2.89,
3.723,21.14,2.36,7.05,1.94,-2.31,-3.06,
3.723,21.70,1.53,7.19,1.94,-2.31,-3.06,
3.724,21.70,1.53,7.19,1.93,-2.44,-3.24,
3.724,22.16,0.69,7.36,1.93,-2.44,-3.24,
3.725,22.16,0.69,7.36,1.92,-2.55,-3.43,
3.725,22.68,-0.22,7.52,1.92,-2.55,-3.43,
3.726,22.68,-0.22,7.52,1.92,-2.65,-3.64,
3.733,22.68,-0.22,7.52,1.92,-2.73,-3.86,
3.733,23.04,-1.14,7.71,1.92,-2.73,-3.86,
3.734,23.04,-1.14,7.71,1.92,-2.78,-4.09,
3.734,23.37,-2.06,7.86,1.92,-2.78,-4.09,
3.738,23.61,-2.99,7.95,1.92,-2.78,-4.09,
3.738,23.61,-2.99,7.95,1.92,-2.80,-4.32,
3.743,23.73,-3.86,7.98,1.92,-2.80,-4.32,
3.743,23.73,-3.86,7.98,1.92,-2.80,-4.57,
3.748,23.73,-4.69,7.94,1.92,-2.80,-4.57,
3.749,23.73,-4.69,7.94,1.92,-2.77,-4.81,
3.76,23.73,-4.69,7.94,1.90,-2.72,-5.07,
3.761,23.60,-5.50,7.81,1.90,-2.72,-5.07,
3.761,23.60,-5.50,7.81,1.88,-2.64,-5.32,
3.761,23.37,-6.28,7.65,1.88,-2.64,-5.32,
3.762,23.37,-6.28,7.65,1.83,-2.54,-5.57,
3.762,23.06,-7.12,7.49,1.83,-2.54,-5.57,
3.791,23.06,-7.12,7.49,1.78,-2.42,-5.80,
3.791,22.75,-7.94,7.39,1.78,-2.42,-5.80,
3.792,22.44,-8.80,7.25,1.78,-2.42,-5.80,
3.792,22.44,-8.80,7.25,1.71,-2.30,-6.02,
3.793,22.06,-9.66,7.19,1.71,-2.30,-6.02,
3.793,22.06,-9.66,7.19,1.63,-2.17,-6.23,
3.793,21.77,-10.49,7.11,1.63,-2.17,-6.23,
3.794,21.77,-10.49,7.11,1.55,-2.03,-6.43,
3.794,21.77,-10.49,7.11,1.47,-1.87,-6.62,
3.795,21.58,-11.43,6.99,1.47,-1.87,-6.62,
3.795,21.58,-11.43,6.99,1.39,-1.70,-6.79,
3.796,21.47,-12.36,6.83,1.39,-1.70,-6.79,
3.796,21.33,-13.32,6.73,1.39,-1.70,-6.79,
3.797,21.33,-13.32,6.73,1.32,-1.50,-6.94,
3.831,21.22,-14.23,6.55,1.32,-1.50,-6.94,
3.832,21.22,-14.23,6.55,1.25,-1.28,-7.07,
3.832,21.22,-14.23,6.55,1.18,-1.05,-7.19,
3.832,21.15,-15.00,6.25,1.18,-1.05,-7.19,
3.833,21.17,-15.86,5.93,1.18,-1.05,-7.19,
3.833,21.17,-15.86,5.93,1.11,-0.79,-7.29,
3.834,21.33,-16.77,5.46,1.11,-0.79,-7.29,
3.834,21.33,-16.77,5.46,1.05,-0.51,-7.38,
3.835,21.33,-16.77,5.46,0.99,-0.23,-7.46,
3.835,21.72,-17.82,4.95,0.99,-0.23,-7.46,
3.836,21.72,-17.82,4.95,0.92,0.05,-7.54,
3.836,22.29,-18.95,4.36,0.92,0.05,-7.54,
3.836,22.29,-18.95,4.36,0.84,0.34,-7.61,
3.837,22.97,-20.05,3.78,0.84,0.34,-7.61,
3.837,22.97,-20.05,3.78,0.75,0.62,-7.69,
3.837,23.67,-21.25,3.24,0.75,0.62,-7.69,
3.887,23.67,-21.25,3.24,0.65,0.91,-7.77,
3.888,24.31,-22.49,2.71,0.65,0.91,-7.77,
3.888,24.31,-22.49,2.71,0.55,1.21,-7.85,
3.889,24.75,-23.82,2.14,0.55,1.21,-7.85,
3.889,24.75,-23.82,2.14,0.43,1.53,-7.93,
3.89,25.00,-25.13,1.52,0.43,1.53,-7.93,
3.89,25.00,-25.13,1.52,0.29,1.84,-7.99,
3.89,25.10,-26.33,0.79,0.29,1.84,-7.99,
3.891,25.37,-27.87,0.04,0.29,1.84,-7.99,
3.892,25.37,-27.87,0.04,0.13,2.14,-8.03,
3.892,25.71,-29.61,-0.51,0.13,2.14,-8.03,
3.893,25.71,-29.61,-0.51,-0.05,2.41,-8.06,
3.893,25.47,-30.85,-0.59,-0.05,2.41,-8.06,
3.894,25.47,-30.85,-0.59,-0.25,2.60,-8.07,
3.895,24.92,-31.74,-0.34,-0.25,2.60,-8.07,
3.895,24.92,-31.74,-0.34,-0.48,2.75,-8.08,
3.896,24.92,-31.74,-0.34,-0.69,2.91,-8.08,
3.896,24.21,-32.43,0.22,-0.69,2.91,-8.08,
3.897,23.55,-32.98,1.09,-0.69,2.91,-8.08,
3.897,23.55,-32.98,1.09,-0.85,3.09,-8.07,
3.898,22.99,-33.68,2.18,-0.85,3.09,-8.07,
3.898,22.99,-33.68,2.18,-0.92,3.27,-8.07,
3.899,22.56,-34.44,3.49,-0.92,3.27,-8.07,
3.9,22.56,-34.44,3.49,-0.91,3.45,-8.06,
3.9,22.21,-35.16,4.92,-0.91,3.45,-8.06,
3.901,22.21,-35.16,4.92,-0.79,3.57,-8.03,
3.961,22.21,-35.16,4.92,-0.55,3.62,-8.01,
3.963,21.85,-35.48,6.43,-0.55,3.62,-8.01,
3.963,21.85,-35.48,6.43,-0.19,3.60,-7.97,
3.963,21.47,-35.80,7.93,-0.19,3.60,-7.97,
3.964,21.47,-35.80,7.93,0.29,3.51,-7.94,
3.964,20.81,-36.13,9.26,0.29,3.51,-7.94,
3.965,20.81,-36.13,9.26,0.89,3.33,-7.91,
3.965,19.80,-36.47,10.20,0.89,3.33,-7.91,
3.966,19.80,-36.47,10.20,1.57,3.05,-7.87,
3.966,18.50,-36.81,10.80,1.57,3.05,-7.87,
3.966,18.50,-36.81,10.80,2.31,2.67,-7.83,
3.967,17.24,-37.16,11.10,2.31,2.67,-7.83,
3.967,15.85,-37.51,11.18,2.31,2.67,-7.83,
3.968,15.85,-37.51,11.18,3.07,2.21,-7.79,
3.968,15.85,-37.51,11.18,3.83,1.64,-7.79,
3.969,14.40,-37.87,10.96,3.83,1.64,-7.79,
3.969,14.40,-37.87,10.96,4.58,0.98,-7.79,
3.969,12.80,-38.23,10.46,4.58,0.98,-7.79,
3.97,11.13,-38.53,9.87,4.58,0.98,-7.79,
3.97,11.13,-38.53,9.87,5.29,0.26,-7.79,
3.971,9.32,-38.50,9.22,5.29,0.26,-7.79,
3.971,9.32,-38.50,9.22,5.94,-0.48,-7.78,
3.971,9.32,-38.50,9.22,6.52,-1.22,-7.74,
3.972,7.47,-38.31,8.46,6.52,-1.22,-7.74,
3.972,7.47,-38.31,8.46,7.02,-1.94,-7.67,
3.973,5.65,-37.96,7.70,7.02,-1.94,-7.67,
3.973,4.01,-37.43,6.96,7.02,-1.94,-7.67,
3.974,4.01,-37.43,6.96,7.42,-2.59,-7.57,
3.974,2.50,-36.72,6.34,7.42,-2.59,-7.57,
3.975,2.50,-36.72,6.34,7.74,-3.17,-7.45,
3.989,2.50,-36.72,6.34,7.98,-3.67,-7.32,
3.989,1.17,-35.82,5.77,7.98,-3.67,-7.32,
3.99,0.04,-34.74,5.26,7.98,-3.67,-7.32,
3.99,0.04,-34.74,5.26,8.14,-4.10,-7.17,
3.99,0.04,-34.74,5.26,8.23,-4.44,-7.00,
3.991,-0.88,-33.61,4.78,8.23,-4.44,-7.00,
3.991,-1.69,-32.39,4.22,8.23,-4.44,-7.00,
3.992,-1.69,-32.39,4.22,8.25,-4.70,-6.83,
4.01,-1.69,-32.39,4.22,8.18,-4.87,-6.66,
4.01,-2.43,-31.16,3.48,8.18,-4.87,-6.66,
4.01,-3.05,-29.85,2.53,8.18,-4.87,-6.66,
4.011,-3.05,-29.85,2.53,8.05,-4.93,-6.47,
4.011,-3.62,-28.52,1.54,8.05,-4.93,-6.47,
4.012,-3.62,-28.52,1.54,7.82,-4.91,-6.27,
4.038,-3.62,-28.52,1.54,7.51,-4.81,-6.06,
4.04,-4.12,-27.14,0.59,7.51,-4.81,-6.06,
4.04,-4.53,-25.70,-0.26,7.51,-4.81,-6.06,
4.04,-4.53,-25.70,-0.26,7.11,-4.66,-5.84,
4.041,-4.83,-24.24,-0.95,7.11,-4.66,-5.84,
4.041,-4.83,-24.24,-0.95,6.65,-4.46,-5.60,
4.042,-4.98,-22.85,-1.40,6.65,-4.46,-5.60,
4.042,-4.98,-22.85,-1.40,6.14,-4.21,-5.36,
4.043,-4.92,-21.48,-1.59,6.14,-4.21,-5.36,
4.043,-4.92,-21.48,-1.59,5.60,-3.94,-5.11,
4.043,-4.70,-20.27,-1.53,5.60,-3.94,-5.11,
4.044,-4.70,-20.27,-1.53,5.03,-3.65,-4.86,
4.044,-4.70,-20.27,-1.53,4.46,-3.32,-4.63,
4.045,-4.35,-19.15,-1.33,4.46,-3.32,-4.63,
4.077,-4.35,-19.15,-1.33,3.90,-2.98,-4.41,
4.077,-3.97,-18.19,-1.02,3.90,-2.98,-4.41,
4.078,-3.97,-18.19,-1.02,3.36,-2.64,-4.22,
4.078,-3.59,-17.28,-0.60,3.36,-2.64,-4.22,
4.079,-3.22,-16.52,-0.13,3.36,-2.64,-4.22,
4.079,-3.22,-16.52,-0.13,2.85,-2.29,-4.06,
4.08,-2.92,-15.88,0.37,2.85,-2.29,-4.06,
4.08,-2.92,-15.88,0.37,2.36,-1.93,-3.93,
4.08,-2.92,-15.88,0.37,1.91,-1.58,-3.82,
4.081,-2.74,-15.34,0.80,1.91,-1.58,-3.82,
4.081,-2.65,-14.87,1.29,1.91,-1.58,-3.82,
4.082,-2.65,-14.87,1.29,1.49,-1.22,-3.75,
4.082,-2.65,-14.87,1.29,1.11,-0.87,-3.70,
4.082,-2.65,-14.41,1.74,1.11,-0.87,-3.70,
4.083,-2.75,-14.04,2.23,1.11,-0.87,-3.70,
4.083,-2.75,-14.04,2.23,0.75,-0.53,-3.67,
4.084,-2.83,-13.70,2.63,0.75,-0.53,-3.67,
4.084,-2.83,-13.70,2.63,0.44,-0.19,-3.66,
4.107,-3.10,-13.48,2.98,0.44,-0.19,-3.66,
4.107,-3.10,-13.48,2.98,0.16,0.12,-3.66,
4.108,-3.10,-13.48,2.98,-0.08,0.40,-3.68,
4.108,-3.38,-13.40,3.22,-0.08,0.40,-3.68,
4.108,-3.38,-13.40,3.22,-0.29,0.61,-3.71,
4.109,-3.79,-13.38,3.34,-0.29,0.61,-3.71,
4.109,-4.29,-13.50,3.52,-0.29,0.61,-3.71,
4.109,-4.29,-13.50,3.52,-0.47,0.74,-3.75,
4.11,-4.84,-13.64,3.82,-0.47,0.74,-3.75,
4.11,-4.84,-13.64,3.82,-0.60,0.81,-3.78,
4.113,-5.36,-13.81,4.24,-0.60,0.81,-3.78,
4.114,-5.36,-13.81,4.24,-0.68,0.81,-3.79,
4.119,-5.36,-13.81,4.24,-0.70,0.76,-3.79,
4.121,-5.78,-13.97,4.72,-0.70,0.76,-3.79,
4.125,-6.17,-14.11,5.10,-0.70,0.76,-3.79,
4.125,-6.17,-14.11,5.10,-0.67,0.63,-3.77,
4.127,-6.62,-14.32,5.38,-0.67,0.63,-3.77,
4.128,-6.62,-14.32,5.38,-0.59,0.44,-3.73,
4.132,-6.62,-14.32,5.38,-0.48,0.18,-3.67,
4.133,-7.05,-14.47,5.55,-0.48,0.18,-3.67,
4.143,-7.05,-14.47,5.55,-0.35,-0.13,-3.60,
4.144,-6.26,-14.43,5.07,-0.35,-0.13,-3.60,
4.144,-5.93,-14.64,4.82,-0.35,-0.13,-3.60,
4.145,-5.93,-14.64,4.82,-0.23,-0.51,-3.56,
4.147,-5.93,-14.64,4.82,-0.13,-0.87,-3.55,
4.148,-7.61,-14.79,6.60,-0.13,-0.87,-3.55,
4.164,-8.71,-14.50,7.12,-0.13,-0.87,-3.55,
4.165,-8.71,-14.50,7.12,0.03,-1.18,-3.47,
4.166,-8.71,-14.50,7.12,0.21,-1.52,-3.34,
4.166,-9.34,-14.18,6.91,0.21,-1.52,-3.34,
4.167,-9.34,-14.18,6.91,0.37,-1.83,-3.19,
4.167,-9.82,-14.01,6.90,0.37,-1.83,-3.19,
4.168,-9.82,-14.01,6.90,0.51,-2.07,-3.02,
4.168,-10.35,-13.88,7.24,0.51,-2.07,-3.02,
4.215,-10.70,-13.67,7.58,0.51,-2.07,-3.02,
4.216,-10.70,-13.67,7.58,0.64,-2.27,-2.84,
4.216,-10.70,-13.67,7.58,0.75,-2.44,-2.64,
4.217,-9.87,-13.46,6.82,0.75,-2.44,-2.64,
4.217,-9.87,-13.46,6.82,0.80,-2.59,-2.45,
4.218,-9.17,-13.44,6.46,0.80,-2.59,-2.45,
4.218,-8.91,-13.37,6.56,0.80,-2.59,-2.45,
4.219,-8.91,-13.37,6.56,0.81,-2.68,-2.30,
4.219,-8.92,-13.26,6.73,0.81,-2.68,-2.30,
4.22,-8.92,-13.26,6.73,0.81,-2.70,-2.16,
4.22,-8.92,-13.26,6.73,0.79,-2.67,-2.01,
4.221,-8.98,-13.11,6.74,0.79,-2.67,-2.01,
4.221,-8.99,-13.10,6.62,0.79,-2.67,-2.01,
4.222,-8.99,-13.10,6.62,0.75,-2.59,-1.85,
4.222,-8.90,-13.12,6.52,0.75,-2.59,-1.85,
4.223,-8.90,-13.12,6.52,0.69,-2.47,-1.66,
4.223,-8.73,-13.10,6.50,0.69,-2.47,-1.66,
4.224,-8.73,-13.10,6.50,0.61,-2.30,-1.48,
4.224,-8.57,-13.05,6.61,0.61,-2.30,-1.48,
4.225,-8.57,-13.05,6.61,0.52,-2.11,-1.29,
4.225,-8.57,-13.05,6.61,0.42,-1.90,-1.10,
4.226,-8.42,-12.97,6.73,0.42,-1.90,-1.10,
4.226,-8.29,-12.94,6.82,0.42,-1.90,-1.10,
4.226,-8.29,-12.94,6.82,0.33,-1.67,-0.92,
4.24,-8.10,-12.91,6.91,0.33,-1.67,-0.92,
4.241,-8.10,-12.91,6.91,0.24,-1.45,-0.74,
4.241,-8.10,-12.91,6.91,0.16,-1.21,-0.56,
4.242,-7.94,-12.97,6.94,0.16,-1.21,-0.56,
4.242,-7.82,-13.07,6.93,0.16,-1.21,-0.56,
4.243,-7.82,-13.07,6.93,0.09,-0.99,-0.38,
4.247,-7.82,-13.07,6.93,0.01,-0.78,-0.20,
4.247,-7.76,-13.15,6.85,0.01,-0.78,-0.20,
4.25,-7.76,-13.15,6.85,-0.06,-0.59,-0.03,
4.25,-7.76,-13.24,6.81,-0.06,-0.59,-0.03,
4.26,-7.70,-13.38,6.73,-0.06,-0.59,-0.03,
4.261,-7.70,-13.38,6.73,-0.12,-0.42,0.15,
4.262,-7.60,-13.50,6.71,-0.12,-0.42,0.15,
4.262,-7.60,-13.50,6.71,-0.18,-0.25,0.35,
4.267,-7.47,-13.68,6.62,-0.18,-0.25,0.35,
4.267,-7.47,-13.68,6.62,-0.23,-0.11,0.54,
4.283,-7.32,-13.86,6.60,-0.23,-0.11,0.54,
4.284,-7.32,-13.86,6.60,-0.28,0.02,0.75,
4.285,-7.32,-13.86,6.60,-0.33,0.13,0.95,
4.285,-7.05,-14.07,6.50,-0.33,0.13,0.95,
4.286,-6.74,-14.31,6.36,-0.33,0.13,0.95,
4.286,-6.74,-14.31,6.36,-0.38,0.23,1.16,
4.287,-6.74,-14.31,6.36,-0.43,0.32,1.37,
4.287,-6.37,-14.63,6.21,-0.43,0.32,1.37,
4.464,-6.37,-14.63,6.21,-0.48,0.40,1.58,
4.464,-5.98,-14.97,6.10,-0.48,0.40,1.58,
4.465,-5.98,-14.97,6.10,-0.54,0.49,1.80,
4.465,-5.60,-15.25,5.92,-0.54,0.49,1.80,
4.466,-5.24,-15.54,5.80,-0.54,0.49,1.80,
4.466,-5.24,-15.54,5.80,-0.60,0.58,2.00,
4.467,-5.24,-15.54,5.80,-0.67,0.69,2.20,
4.467,-4.90,-15.80,5.65,-0.67,0.69,2.20,
4.468,-4.60,-16.01,5.49,-0.67,0.69,2.20,
4.468,-4.60,-16.01,5.49,-0.75,0.79,2.40,
4.469,-4.39,-16.21,5.35,-0.75,0.79,2.40,
4.469,-4.39,-16.21,5.35,-0.83,0.90,2.60,
4.47,-4.39,-16.21,5.35,-0.92,0.99,2.79,
4.47,-4.23,-16.42,5.26,-0.92,0.99,2.79,
4.471,-4.05,-16.65,5.17,-0.92,0.99,2.79,
4.471,-4.05,-16.65,5.17,-1.02,1.09,2.98,
4.472,-3.86,-16.94,5.06,-1.02,1.09,2.98,
4.472,-3.86,-16.94,5.06,-1.12,1.17,3.17,
4.473,-3.64,-17.27,5.00,-1.12,1.17,3.17,
4.473,-3.64,-17.27,5.00,-1.23,1.25,3.36,
4.474,-3.64,-17.27,5.00,-1.33,1.32,3.56,
4.474,-3.47,-17.66,4.94,-1.33,1.32,3.56,
4.475,-3.26,-18.12,4.84,-1.33,1.32,3.56,
4.475,-3.26,-18.12,4.84,-1.44,1.38,3.77,
4.476,-3.26,-18.12,4.84,-1.55,1.44,3.98,
4.476,-3.06,-18.55,4.83,-1.55,1.44,3.98,
4.477,-3.06,-18.55,4.83,-1.65,1.50,4.19,
4.477,-2.93,-19.05,4.84,-1.65,1.50,4.19,
4.478,-2.93,-19.05,4.84,-1.75,1.57,4.42,
4.479,-2.80,-19.51,4.89,-1.75,1.57,4.42,
4.479,-2.80,-19.51,4.89,-1.85,1.63,4.66,
4.48,-2.68,-19.88,4.99,-1.85,1.63,4.66,
4.48,-2.68,-19.88,4.99,-1.94,1.69,4.90,
4.481,-2.61,-20.26,5.10,-1.94,1.69,4.90,
4.481,-2.61,-20.26,5.10,-2.03,1.75,5.16,
4.482,-2.44,-20.59,5.18,-2.03,1.75,5.16,
4.483,-2.44,-20.59,5.18,-2.11,1.80,5.43,
4.483,-2.21,-20.91,5.29,-2.11,1.80,5.43,
4.484,-2.01,-21.28,5.34,-2.11,1.80,5.43,
4.484,-2.01,-21.28,5.34,-2.17,1.85,5.71,
4.485,-2.01,-21.28,5.34,-2.23,1.89,5.99,
4.485,-1.73,-21.68,5.37,-2.23,1.89,5.99,
4.486,-1.73,-21.68,5.37,-2.28,1.94,6.28,
4.486,-1.35,-22.10,5.45,-2.28,1.94,6.28,
4.487,-0.91,-22.46,5.50,-2.28,1.94,6.28,
4.488,-0.91,-22.46,5.50,-2.32,1.97,6.58,
4.488,-0.38,-22.81,5.47,-2.32,1.97,6.58,
4.489,-0.38,-22.81,5.47,-2.36,2.00,6.88,
4.489,-0.38,-22.81,5.47,-2.39,2.02,7.17,
4.49,0.32,-23.13,5.43,-2.39,2.02,7.17,
4.49,0.32,-23.13,5.43,-2.42,2.04,7.45,
4.491,1.22,-23.45,5.32,-2.42,2.04,7.45,
4.491,1.22,-23.45,5.32,-2.44,2.05,7.71,
4.492,2.22,-23.71,5.27,-2.44,2.05,7.71,
4.492,2.22,-23.71,5.27,-2.46,2.05,7.95,
4.493,3.28,-23.99,5.21,-2.46,2.05,7.95,
4.493,4.33,-24.32,5.10,-2.46,2.05,7.95,
4.494,4.33,-24.32,5.10,-2.47,2.07,8.15,
4.494,5.41,-24.67,4.99,-2.47,2.07,8.15,
4.494,5.41,-24.67,4.99,-2.49,2.09,8.33,
4.495,5.41,-24.67,4.99,-2.50,2.12,8.49,
4.495,6.50,-25.06,4.93,-2.50,2.12,8.49,
4.496,6.50,-25.06,4.93,-2.51,2.17,8.62,
4.496,7.61,-25.47,4.88,-2.51,2.17,8.62,
4.496,7.61,-25.47,4.88,-2.51,2.24,8.73,
4.497,8.73,-25.78,4.80,-2.51,2.24,8.73,
4.497,9.81,-25.97,4.66,-2.51,2.24,8.73,
4.497,9.81,-25.97,4.66,-2.51,2.32,8.82,
4.498,9.81,-25.97,4.66,-2.50,2.41,8.88,
4.498,10.76,-26.12,4.49,-2.50,2.41,8.88,
4.499,10.76,-26.12,4.49,-2.50,2.49,8.93,
4.499,11.64,-26.22,4.26,-2.50,2.49,8.93,
4.5,11.64,-26.22,4.26,-2.50,2.56,8.95,
4.5,12.49,-26.34,3.96,-2.50,2.56,8.95,
4.5,13.32,-26.48,3.65,-2.50,2.56,8.95,
4.501,13.32,-26.48,3.65,-2.51,2.62,8.97,
4.501,14.20,-26.62,3.29,-2.51,2.62,8.97,
4.502,14.20,-26.62,3.29,-2.52,2.64,8.98,
4.502,14.20,-26.62,3.29,-2.53,2.64,8.97,
4.503,15.21,-26.73,2.86,-2.53,2.64,8.97,
4.503,15.21,-26.73,2.86,-2.56,2.61,8.95,
4.503,16.35,-26.81,2.43,-2.56,2.61,8.95,
4.504,16.35,-26.81,2.43,-2.59,2.53,8.91,
4.504,17.72,-26.91,1.95,-2.59,2.53,8.91,
4.505,17.72,-26.91,1.95,-2.62,2.41,8.84,
4.505,19.20,-26.64,1.54,-2.62,2.41,8.84,
4.506,20.30,-26.31,1.73,-2.62,2.41,8.84,
4.506,20.30,-26.31,1.73,-2.66,2.25,8.72,
4.507,21.50,-26.55,0.64,-2.66,2.25,8.72,
4.507,21.50,-26.55,0.64,-2.67,2.06,8.58,
4.655,22.62,-26.67,-0.04,-2.67,2.06,8.58,
4.655,22.62,-26.67,-0.04,-2.71,1.79,8.43,
4.657,23.09,-26.67,-0.40,-2.71,1.79,8.43,
4.658,23.09,-26.67,-0.40,-2.76,1.49,8.27,
4.658,23.11,-26.62,-0.56,-2.76,1.49,8.27,
4.658,23.11,-26.62,-0.56,-2.81,1.16,8.13,
4.659,23.11,-26.62,-0.56,-2.86,0.83,8.05,
4.659,23.02,-26.50,-0.43,-2.86,0.83,8.05,
4.659,23.11,-26.33,-0.07,-2.86,0.83,8.05,
4.66,23.11,-26.33,-0.07,-2.89,0.47,8.01,
4.843,23.52,-25.94,0.34,-2.89,0.47,8.01,
4.844,23.52,-25.94,0.34,-2.92,0.12,8.02,
4.844,24.27,-25.47,0.71,-2.92,0.12,8.02,
4.845,24.27,-25.47,0.71,-2.92,-0.21,8.05,
4.845,24.98,-24.92,1.13,-2.92,-0.21,8.05,
4.846,24.98,-24.92,1.13,-2.93,-0.49,8.07,
4.847,25.58,-24.34,1.53,-2.93,-0.49,8.07,
4.847,25.58,-24.34,1.53,-2.94,-0.72,8.06,
4.848,26.13,-23.66,1.99,-2.94,-0.72,8.06,
4.848,26.13,-23.66,1.99,-2.96,-0.88,8.03,
4.849,26.49,-22.76,2.52,-2.96,-0.88,8.03,
4.849,26.49,-22.76,2.52,-2.98,-0.98,7.98,
4.85,26.49,-22.76,2.52,-3.02,-1.02,7.91,
4.85,26.91,-21.72,3.34,-3.02,-1.02,7.91,
4.851,26.91,-21.72,3.34,-3.03,-0.99,7.80,
4.851,27.12,-20.56,4.54,-3.03,-0.99,7.80,
4.852,27.22,-19.38,5.80,-3.03,-0.99,7.80,
4.853,27.22,-19.38,5.80,-3.02,-0.90,7.67,
4.853,27.23,-18.17,6.85,-3.02,-0.90,7.67,
4.854,27.23,-18.17,6.85,-2.95,-0.79,7.51,
4.854,26.98,-16.91,7.62,-2.95,-0.79,7.51,
4.855,26.98,-16.91,7.62,-2.86,-0.64,7.33,
4.856,26.36,-15.50,8.20,-2.86,-0.64,7.33,
4.856,26.36,-15.50,8.20,-2.74,-0.48,7.15,
4.857,26.36,-15.50,8.20,-2.61,-0.31,6.96,
4.857,25.33,-13.96,8.64,-2.61,-0.31,6.96,
4.858,25.33,-13.96,8.64,-2.47,-0.13,6.80,
4.858,24.22,-12.25,9.04,-2.47,-0.13,6.80,
4.859,24.22,-12.25,9.04,-2.33,0.07,6.65,
4.859,23.18,-10.55,9.38,-2.33,0.07,6.65,
4.86,23.18,-10.55,9.38,-2.18,0.28,6.53,
4.86,22.33,-8.83,9.71,-2.18,0.28,6.53,
4.861,22.33,-8.83,9.71,-2.02,0.49,6.44,
4.861,21.74,-7.27,10.05,-2.02,0.49,6.44,
4.862,21.74,-7.27,10.05,-1.84,0.71,6.34,
4.863,21.49,-6.00,10.25,-1.84,0.71,6.34,
4.863,21.49,-6.00,10.25,-1.65,0.93,6.25,
4.863,21.57,-4.98,10.29,-1.65,0.93,6.25,
4.864,21.57,-4.98,10.29,-1.44,1.14,6.14,
4.865,21.89,-4.29,10.16,-1.44,1.14,6.14,
4.865,21.89,-4.29,10.16,-1.23,1.32,5.99,
4.866,22.35,-3.76,9.85,-1.23,1.32,5.99,
4.866,22.79,-3.26,9.42,-1.23,1.32,5.99,
4.867,22.79,-3.26,9.42,-1.01,1.47,5.80,
4.867,23.00,-2.66,8.90,-1.01,1.47,5.80,
4.868,23.00,-2.66,8.90,-0.80,1.58,5.58,
4.868,22.92,-1.97,8.32,-0.80,1.58,5.58,
4.869,22.92,-1.97,8.32,-0.59,1.64,5.32,
4.869,22.59,-1.23,7.72,-0.59,1.64,5.32,
4.87,22.59,-1.23,7.72,-0.40,1.65,5.04,
4.87,22.08,-0.49,7.11,-0.40,1.65,5.04,
4.871,22.08,-0.49,7.11,-0.22,1.60,4.76,
4.871,21.41,0.20,6.48,-0.22,1.60,4.76,
4.872,21.41,0.20,6.48,-0.05,1.51,4.47,
4.872,20.69,0.75,5.83,-0.05,1.51,4.47,
4.873,20.69,0.75,5.83,0.10,1.39,4.19,
4.873,20.69,0.75,5.83,0.23,1.26,3.92,
4.874,19.98,1.27,5.23,0.23,1.26,3.92,
4.874,19.98,1.27,5.23,0.35,1.11,3.66,
4.874,19.32,1.71,4.63,0.35,1.11,3.66,
4.874,18.72,2.01,3.99,0.35,1.11,3.66,
4.875,18.72,2.01,3.99,0.44,0.97,3.42,
4.875,18.72,2.01,3.99,0.51,0.82,3.19,
4.875,18.15,2.27,3.38,0.51,0.82,3.19,
4.876,17.51,2.47,2.77,0.51,0.82,3.19,
4.876,17.51,2.47,2.77,0.55,0.67,2.96,
4.876,16.79,2.62,2.18,0.55,0.67,2.96,
4.877,16.79,2.62,2.18,0.56,0.53,2.75,
4.877,16.79,2.62,2.18,0.54,0.37,2.54,
4.877,16.02,2.71,1.61,0.54,0.37,2.54,
4.878,16.02,2.71,1.61,0.48,0.23,2.36,
4.878,15.28,2.82,1.16,0.48,0.23,2.36,
4.878,14.93,2.78,0.54,0.48,0.23,2.36,
4.879,14.93,2.78,0.54,0.40,0.08,2.19,
4.879,13.96,3.00,0.43,0.40,0.08,2.19,
4.879,13.96,3.00,0.43,0.30,-0.07,2.04,
4.88,13.96,3.00,0.43,0.18,-0.21,1.93,
4.88,12.95,3.25,0.44,0.18,-0.21,1.93,
4.88,12.05,3.51,0.51,0.18,-0.21,1.93,
4.881,12.05,3.51,0.51,0.07,-0.33,1.84,
4.881,11.35,3.72,0.64,0.07,-0.33,1.84,
4.881,11.35,3.72,0.64,-0.04,-0.44,1.79,
4.882,11.35,3.72,0.64,-0.13,-0.54,1.76,
4.882,10.83,3.82,0.74,-0.13,-0.54,1.76,
4.883,10.83,3.82,0.74,-0.22,-0.63,1.76,
4.883,10.43,3.79,0.81,-0.22,-0.63,1.76,
4.883,10.43,3.79,0.81,-0.30,-0.71,1.77,
4.884,10.19,3.78,0.93,-0.30,-0.71,1.77,
4.884,10.14,3.77,1.03,-0.30,-0.71,1.77,
4.884,10.14,3.77,1.03,-0.38,-0.77,1.80,
4.885,10.16,3.79,1.19,-0.38,-0.77,1.80,
4.885,10.16,3.79,1.19,-0.45,-0.82,1.82,
4.886,10.24,3.85,1.45,-0.45,-0.82,1.82,
4.886,10.24,3.85,1.45,-0.52,-0.85,1.85,
4.886,10.24,3.85,1.45,-0.58,-0.88,1.87,
4.887,10.28,3.95,1.72,-0.58,-0.88,1.87,
4.887,10.28,3.95,1.72,-0.63,-0.89,1.89,
4.888,10.38,4.09,2.02,-0.63,-0.89,1.89,
4.888,10.38,4.09,2.02,-0.67,-0.90,1.90,
4.888,10.55,4.27,2.36,-0.67,-0.90,1.90,
4.918,10.55,4.27,2.36,-0.70,-0.88,1.91,
4.918,10.72,4.52,2.72,-0.70,-0.88,1.91,
4.918,10.87,4.74,3.04,-0.70,-0.88,1.91,
4.919,10.87,4.74,3.04,-0.72,-0.85,1.92,
4.919,11.01,5.01,3.35,-0.72,-0.85,1.92,
4.92,11.01,5.01,3.35,-0.72,-0.81,1.91,
4.92,11.24,5.31,3.53,-0.72,-0.81,1.91,
4.92,11.24,5.31,3.53,-0.72,-0.74,1.91,
4.921,11.24,5.31,3.53,-0.71,-0.66,1.91,
4.921,11.47,5.55,3.65,-0.71,-0.66,1.91,
4.921,11.68,5.77,3.73,-0.71,-0.66,1.91,
4.922,11.68,5.77,3.73,-0.69,-0.56,1.90,
4.922,11.88,5.95,3.79,-0.69,-0.56,1.90,
4.922,11.88,5.95,3.79,-0.68,-0.44,1.89,
4.923,12.10,6.18,3.78,-0.68,-0.44,1.89,
4.923,12.10,6.18,3.78,-0.67,-0.31,1.88,
4.923,12.28,6.44,3.71,-0.67,-0.31,1.88,
4.924,12.28,6.44,3.71,-0.66,-0.16,1.87,
4.924,12.28,6.44,3.71,-0.67,-0.02,1.87,
4.924,12.52,6.69,3.66,-0.67,-0.02,1.87,
4.925,12.72,6.98,3.58,-0.67,-0.02,1.87,
4.925,12.72,6.98,3.58,-0.68,0.12,1.86,
4.926,12.98,7.28,3.51,-0.68,0.12,1.86,
4.926,12.98,7.28,3.51,-0.71,0.25,1.85,
4.926,13.25,7.63,3.41,-0.71,0.25,1.85,
4.927,13.25,7.63,3.41,-0.73,0.37,1.84,
4.927,13.60,7.98,3.40,-0.73,0.37,1.84,
4.927,13.60,7.98,3.40,-0.77,0.48,1.82,
4.928,13.60,7.98,3.40,-0.82,0.58,1.80,
4.928,14.00,8.35,3.44,-0.82,0.58,1.80,
4.928,14.40,8.69,3.56,-0.82,0.58,1.80,
4.929,14.40,8.69,3.56,-0.86,0.65,1.76,
4.929,14.81,9.02,3.77,-0.86,0.65,1.76,
4.929,14.81,9.02,3.77,-0.89,0.70,1.72,
4.93,14.81,9.02,3.77,-0.92,0.72,1.66,
4.93,15.21,9.39,3.98,-0.92,0.72,1.66,
4.93,15.50,9.81,4.30,-0.92,0.72,1.66,
4.931,15.50,9.81,4.30,-0.94,0.72,1.60,
4.931,15.79,10.23,4.56,-0.94,0.72,1.60,
4.931,15.79,10.23,4.56,-0.94,0.66,1.55,
4.931,16.21,10.61,4.91,-0.94,0.66,1.55,
4.932,16.21,10.61,4.91,-0.94,0.55,1.49,
4.932,16.82,10.88,5.35,-0.94,0.55,1.49,
4.933,16.82,10.88,5.35,-0.92,0.41,1.44,
4.933,17.68,11.04,5.87,-0.92,0.41,1.44,
4.933,17.68,11.04,5.87,-0.88,0.25,1.36,
4.934,18.72,11.00,6.39,-0.88,0.25,1.36,
4.934,18.72,11.00,6.39,-0.81,0.09,1.25,
4.934,19.90,10.91,6.94,-0.81,0.09,1.25,
4.935,19.90,10.91,6.94,-0.70,-0.05,1.09,
4.935,19.90,10.91,6.94,-0.55,-0.15,0.88,
4.935,21.07,10.77,7.47,-0.55,-0.15,0.88,
4.936,21.07,10.77,7.47,-0.36,-0.20,0.61,
4.936,22.11,10.50,7.92,-0.36,-0.20,0.61,
4.937,22.11,10.50,7.92,-0.12,-0.21,0.27,
4.937,22.90,10.14,8.14,-0.12,-0.21,0.27,
4.937,22.90,10.14,8.14,0.14,-0.20,-0.12,
4.938,23.41,9.70,8.22,0.14,-0.20,-0.12,
4.938,23.58,9.21,8.13,0.14,-0.20,-0.12,
4.939,23.58,9.21,8.13,0.42,-0.18,-0.55,
4.939,23.58,9.21,8.13,0.71,-0.18,-0.99,
4.939,23.37,8.61,7.80,0.71,-0.18,-0.99,
4.94,23.37,8.61,7.80,0.99,-0.22,-1.42,
4.94,22.84,7.95,7.29,0.99,-0.22,-1.42,
4.94,22.16,7.20,6.70,0.99,-0.22,-1.42,
4.941,22.16,7.20,6.70,1.25,-0.32,-1.83,
4.941,22.16,7.20,6.70,1.48,-0.46,-2.19,
4.941,21.51,6.40,6.04,1.48,-0.46,-2.19,
5.099,21.51,6.40,6.04,1.67,-0.64,-2.51,
5.099,20.91,5.53,5.43,1.67,-0.64,-2.51,
5.1,20.91,5.53,5.43,1.82,-0.86,-2.78,
5.1,20.41,4.63,4.84,1.82,-0.86,-2.78,
5.1,20.41,4.63,4.84,1.94,-1.10,-3.00,
5.101,19.98,3.73,4.32,1.94,-1.10,-3.00,
5.101,19.98,3.73,4.32,2.01,-1.36,-3.18,
5.101,19.66,2.88,3.89,2.01,-1.36,-3.18,
5.102,19.66,2.88,3.89,2.04,-1.63,-3.31,
5.102,19.51,2.11,3.51,2.04,-1.63,-3.31,
5.103,19.51,2.11,3.51,2.04,-1.91,-3.42,
5.103,19.48,1.44,3.23,2.04,-1.91,-3.42,
5.103,19.48,1.44,3.23,2.00,-2.18,-3.51,
5.104,19.60,0.90,3.08,2.00,-2.18,-3.51,
5.104,19.60,0.90,3.08,1.94,-2.42,-3.60,
5.104,19.91,0.33,3.05,1.94,-2.42,-3.60,
5.105,19.91,0.33,3.05,1.86,-2.61,-3.71,
5.105,20.37,-0.26,3.15,1.86,-2.61,-3.71,
5.106,20.88,-0.88,3.34,1.86,-2.61,-3.71,
5.106,20.88,-0.88,3.34,1.77,-2.75,-3.84,
5.106,21.29,-1.47,3.61,1.77,-2.75,-3.84,
5.107,21.29,-1.47,3.61,1.68,-2.84,-4.01,
5.107,21.29,-1.47,3.61,1.59,-2.90,-4.21,
5.107,21.56,-2.04,3.87,1.59,-2.90,-4.21,
5.108,21.56,-2.04,3.87,1.51,-2.93,-4.44,
5.108,21.67,-2.58,4.12,1.51,-2.93,-4.44,
5.108,21.67,-2.58,4.12,1.43,-2.92,-4.69,
5.109,21.72,-3.14,4.30,1.43,-2.92,-4.69,
5.109,21.72,-3.14,4.30,1.36,-2.89,-4.94,
5.11,21.59,-3.72,4.42,1.36,-2.89,-4.94,
5.11,21.59,-3.72,4.42,1.28,-2.85,-5.20,
5.11,21.43,-4.41,4.41,1.28,-2.85,-5.20,
5.141,21.43,-4.41,4.41,1.19,-2.79,-5.45,
5.141,21.32,-5.15,4.37,1.19,-2.79,-5.45,
5.142,21.32,-5.15,4.37,1.10,-2.70,-5.69,
5.142,21.18,-5.95,4.31,1.10,-2.70,-5.69,
5.143,21.18,-5.95,4.31,1.00,-2.59,-5.95,
5.143,21.05,-6.92,4.24,1.00,-2.59,-5.95,
5.143,21.05,-6.92,4.24,0.88,-2.45,-6.21,
5.144,20.86,-7.91,4.18,0.88,-2.45,-6.21,
5.144,20.86,-7.91,4.18,0.76,-2.29,-6.46,
5.144,20.44,-8.98,4.65,0.76,-2.29,-6.46,
5.145,20.44,-8.98,4.65,0.66,-2.08,-6.71,
5.145,19.97,-9.95,5.16,0.66,-2.08,-6.71,
5.145,19.97,-9.95,5.16,0.59,-1.86,-6.94,
5.146,19.47,-10.95,5.06,0.59,-1.86,-6.94,
5.146,19.47,-10.95,5.06,0.54,-1.65,-7.14,
5.147,19.06,-11.85,4.70,0.54,-1.65,-7.14,
5.147,19.06,-11.85,4.70,0.48,-1.44,-7.31,
5.147,18.51,-12.75,4.51,0.48,-1.44,-7.31,
5.148,17.78,-13.65,4.65,0.48,-1.44,-7.31,
5.148,17.78,-13.65,4.65,0.43,-1.22,-7.46,
5.148,16.91,-14.48,4.90,0.43,-1.22,-7.46,
5.149,16.91,-14.48,4.90,0.40,-1.00,-7.57,
5.149,16.91,-14.48,4.90,0.39,-0.77,-7.64,
5.15,16.06,-15.29,5.06,0.39,-0.77,-7.64,
5.15,15.29,-15.94,4.95,0.39,-0.77,-7.64,
5.15,15.29,-15.94,4.95,0.40,-0.53,-7.67,
5.151,14.56,-16.57,4.71,0.40,-0.53,-7.67,
5.151,14.56,-16.57,4.71,0.42,-0.31,-7.66,
5.151,13.92,-17.27,4.46,0.42,-0.31,-7.66,
5.152,13.92,-17.27,4.46,0.44,-0.09,-7.61,
5.152,13.21,-17.93,4.18,0.44,-0.09,-7.61,
5.153,13.21,-17.93,4.18,0.46,0.13,-7.52,
5.153,12.39,-18.52,3.81,0.46,0.13,-7.52,
5.154,12.39,-18.52,3.81,0.46,0.37,-7.40,
5.154,12.39,-18.52,3.81,0.45,0.60,-7.25,
5.154,11.55,-19.03,3.42,0.45,0.60,-7.25,
5.155,11.55,-19.03,3.42,0.41,0.81,-7.07,
5.155,10.60,-19.30,3.09,0.41,0.81,-7.07,
5.155,9.74,-19.45,2.88,0.41,0.81,-7.07,
5.156,9.74,-19.45,2.88,0.35,0.99,-6.87,
5.156,9.14,-19.51,2.84,0.35,0.99,-6.87,
5.156,9.14,-19.51,2.84,0.27,1.15,-6.67,
5.157,9.14,-19.51,2.84,0.19,1.27,-6.49,
5.157,8.79,-19.51,3.00,0.19,1.27,-6.49,
5.157,8.44,-19.54,3.35,0.19,1.27,-6.49,
5.158,8.44,-19.54,3.35,0.14,1.36,-6.32,
5.158,8.16,-19.63,3.75,0.14,1.36,-6.32,
5.158,8.16,-19.63,3.75,0.11,1.42,-6.15,
5.159,8.16,-19.63,3.75,0.13,1.45,-5.99,
5.159,8.04,-19.75,3.99,0.13,1.45,-5.99,
5.159,8.12,-19.95,4.03,0.13,1.45,-5.99,
5.16,8.12,-19.95,4.03,0.16,1.43,-5.84,
5.16,8.42,-20.14,4.14,0.16,1.43,-5.84,
5.16,8.42,-20.14,4.14,0.22,1.39,-5.70,
5.161,8.77,-20.42,4.33,0.22,1.39,-5.70,
5.161,8.77,-20.42,4.33,0.28,1.34,-5.60,
5.162,9.25,-20.92,4.52,0.28,1.34,-5.60,
5.162,9.25,-20.92,4.52,0.37,1.26,-5.53,
5.162,9.87,-21.53,4.77,0.37,1.26,-5.53,
5.163,9.87,-21.53,4.77,0.47,1.17,-5.47,
5.576,9.87,-21.53,4.77,0.60,1.08,-5.43,
5.576,10.38,-22.08,5.04,0.60,1.08,-5.43,
5.576,10.67,-22.49,5.23,0.60,1.08,-5.43,
5.577,10.67,-22.49,5.23,0.75,0.98,-5.40,
5.577,10.70,-22.79,5.28,0.75,0.98,-5.40,
5.578,10.70,-22.79,5.28,0.92,0.89,-5.38,
5.578,10.70,-22.79,5.28,1.10,0.81,-5.36,
5.578,10.64,-23.00,5.17,1.10,0.81,-5.36,
5.579,10.64,-23.00,5.17,1.29,0.71,-5.35,
5.579,10.37,-23.03,4.89,1.29,0.71,-5.35,
5.58,10.37,-23.03,4.89,1.47,0.60,-5.34,
5.58,9.94,-22.95,4.53,1.47,0.60,-5.34,
5.58,9.94,-22.95,4.53,1.64,0.47,-5.33,
5.581,9.40,-22.78,4.07,1.64,0.47,-5.33,
5.581,8.66,-22.46,3.57,1.64,0.47,-5.33,
5.581,8.66,-22.46,3.57,1.77,0.33,-5.32,
5.582,7.86,-22.13,2.97,1.77,0.33,-5.32,
5.582,7.86,-22.13,2.97,1.88,0.19,-5.31,
5.582,7.04,-21.71,2.37,1.88,0.19,-5.31,
5.583,7.04,-21.71,2.37,1.94,0.05,-5.28,
5.583,7.04,-21.71,2.37,1.97,-0.07,-5.25,
5.583,6.22,-21.30,1.85,1.97,-0.07,-5.25,
5.584,6.22,-21.30,1.85,1.94,-0.19,-5.21,
5.584,5.40,-20.78,1.47,1.94,-0.19,-5.21,
5.585,4.44,-20.14,1.29,1.94,-0.19,-5.21,
5.585,4.44,-20.14,1.29,1.89,-0.29,-5.16,
5.585,3.45,-19.39,1.28,1.89,-0.29,-5.16,
5.586,3.45,-19.39,1.28,1.81,-0.36,-5.11,
5.586,3.45,-19.39,1.28,1.72,-0.40,-5.03,
5.587,2.69,-18.76,1.35,1.72,-0.40,-5.03,
5.587,2.29,-18.36,1.43,1.72,-0.40,-5.03,
5.588,2.29,-18.36,1.43,1.62,-0.42,-4.94,
5.588,2.11,-18.02,1.55,1.62,-0.42,-4.94,
5.588,2.11,-18.02,1.55,1.53,-0.42,-4.85,
5.589,2.00,-17.70,1.62,1.53,-0.42,-4.85,
5.589,2.00,-17.70,1.62,1.43,-0.42,-4.77,
5.589,1.88,-17.38,1.73,1.43,-0.42,-4.77,
5.59,1.88,-17.38,1.73,1.33,-0.41,-4.70,
5.59,1.74,-17.01,1.88,1.33,-0.41,-4.70,
5.591,1.74,-17.01,1.88,1.22,-0.40,-4.65,
5.62,1.61,-16.62,2.04,1.22,-0.40,-4.65,
5.621,1.61,-16.62,2.04,1.13,-0.38,-4.61,
5.621,1.52,-16.36,2.27,1.13,-0.38,-4.61,
5.622,1.52,-16.36,2.27,1.04,-0.34,-4.58,
5.622,1.39,-16.15,2.46,1.04,-0.34,-4.58,
5.622,1.39,-16.15,2.46,0.95,-0.30,-4.57,
5.623,1.25,-16.03,2.61,0.95,-0.30,-4.57,
5.623,1.25,-16.03,2.61,0.88,-0.26,-4.56,
5.623,1.11,-15.95,2.73,0.88,-0.26,-4.56,
5.624,1.11,-15.95,2.73,0.82,-0.22,-4.57,
5.624,0.84,-15.90,2.87,0.82,-0.22,-4.57,
5.624,0.84,-15.90,2.87,0.76,-0.17,-4.58,
5.625,0.57,-15.90,3.02,0.76,-0.17,-4.58,
5.625,0.57,-15.90,3.02,0.71,-0.12,-4.59,
5.625,0.23,-15.88,3.18,0.71,-0.12,-4.59,
5.626,0.23,-15.88,3.18,0.67,-0.07,-4.60,
5.626,-0.12,-15.86,3.38,0.67,-0.07,-4.60,
5.627,-0.12,-15.86,3.38,0.64,0.00,-4.61,
5.627,-0.53,-15.92,3.56,0.64,0.00,-4.61,
5.627,-0.53,-15.92,3.56,0.62,0.08,-4.61,
5.628,-0.88,-15.94,3.77,0.62,0.08,-4.61,
5.628,-0.88,-15.94,3.77,0.61,0.17,-4.59,
5.628,-1.25,-16.06,3.99,0.61,0.17,-4.59,
5.628,-1.25,-16.06,3.99,0.62,0.27,-4.58,
5.629,-1.25,-16.06,3.99,0.65,0.36,-4.56,
5.629,-1.68,-16.21,4.27,0.65,0.36,-4.56,
5.63,-1.68,-16.21,4.27,0.71,0.44,-4.54,
5.63,-2.21,-16.36,4.53,0.71,0.44,-4.54,
5.63,-2.21,-16.36,4.53,0.79,0.51,-4.51,
5.631,-2.76,-16.46,4.77,0.79,0.51,-4.51,
5.631,-2.76,-16.46,4.77,0.89,0.58,-4.48,
5.631,-3.43,-16.49,4.91,0.89,0.58,-4.48,
5.632,-3.43,-16.49,4.91,1.01,0.63,-4.44,
5.632,-4.28,-16.53,4.95,1.01,0.63,-4.44,
5.633,-4.28,-16.53,4.95,1.15,0.68,-4.39,
5.633,-5.34,-16.51,4.96,1.15,0.68,-4.39,
5.633,-6.44,-16.42,4.94,1.15,0.68,-4.39,
5.634,-6.44,-16.42,4.94,1.31,0.72,-4.32,
5.634,-6.44,-16.42,4.94,1.47,0.74,-4.21,
5.634,-7.54,-16.21,4.96,1.47,0.74,-4.21,
5.635,-8.62,-16.01,4.86,1.47,0.74,-4.21,
5.635,-8.62,-16.01,4.86,1.65,0.73,-4.07,
5.635,-9.61,-15.86,4.65,1.65,0.73,-4.07,
5.636,-9.61,-15.86,4.65,1.84,0.70,-3.90,
5.636,-9.61,-15.86,4.65,2.02,0.63,-3.69,
5.636,-10.45,-15.74,4.28,2.02,0.63,-3.69,
5.637,-11.13,-15.61,3.81,2.02,0.63,-3.69,
5.637,-11.13,-15.61,3.81,2.20,0.55,-3.45,
5.637,-11.13,-15.61,3.81,2.34,0.44,-3.21,
5.638,-11.62,-15.52,3.16,2.34,0.44,-3.21,
5.638,-11.62,-15.52,3.16,2.46,0.33,-2.95,
5.638,-12.00,-15.46,2.39,2.46,0.33,-2.95,
5.639,-12.24,-15.33,1.62,2.46,0.33,-2.95,
5.639,-12.24,-15.33,1.62,2.53,0.21,-2.70,
5.64,-12.24,-15.33,1.62,2.55,0.08,-2.45,
5.64,-12.44,-15.08,0.88,2.55,0.08,-2.45,
5.64,-12.54,-14.85,0.26,2.55,0.08,-2.45,
5.641,-12.54,-14.85,0.26,2.54,-0.05,-2.22,
5.641,-12.62,-14.50,-0.25,2.54,-0.05,-2.22,
5.642,-12.62,-14.50,-0.25,2.48,-0.17,-2.00,
5.642,-12.58,-14.10,-0.54,2.48,-0.17,-2.00,
5.642,-12.58,-14.10,-0.54,2.38,-0.29,-1.78,
5.643,-12.42,-13.69,-0.63,2.38,-0.29,-1.78,
5.643,-12.42,-13.69,-0.63,2.26,-0.38,-1.58,
5.643,-12.14,-13.36,-0.46,2.26,-0.38,-1.58,
5.644,-12.14,-13.36,-0.46,2.13,-0.46,-1.39,
5.644,-11.78,-13.07,-0.08,2.13,-0.46,-1.39,
5.645,-11.78,-13.07,-0.08,1.99,-0.53,-1.21,
5.645,-11.78,-13.07,-0.08,1.87,-0.57,-1.06,
5.645,-11.37,-12.85,0.42,1.87,-0.57,-1.06,
5.646,-10.95,-12.64,0.95,1.87,-0.57,-1.06,
5.646,-10.95,-12.64,0.95,1.77,-0.59,-0.92,
5.647,-10.95,-12.64,0.95,1.69,-0.60,-0.81,
5.647,-10.58,-12.41,1.46,1.69,-0.60,-0.81,
5.648,-10.58,-12.41,1.46,1.64,-0.58,-0.71,
5.648,-10.34,-12.22,1.96,1.64,-0.58,-0.71,
5.648,-10.34,-12.22,1.96,1.62,-0.53,-0.64,
5.649,-10.14,-12.05,2.33,1.62,-0.53,-0.64,
5.649,-10.08,-11.91,2.60,1.62,-0.53,-0.64,
5.65,-10.08,-11.91,2.60,1.62,-0.47,-0.58,
5.65,-10.10,-11.88,2.73,1.62,-0.47,-0.58,
5.65,-10.10,-11.88,2.73,1.64,-0.41,-0.52,
5.651,-10.10,-11.88,2.73,1.66,-0.33,-0.46,
5.651,-10.24,-11.86,2.64,1.66,-0.33,-0.46,
5.651,-10.24,-11.86,2.64,1.68,-0.26,-0.40,
5.652,-10.45,-11.89,2.45,1.68,-0.26,-0.40,
5.652,-10.72,-11.96,2.11,1.68,-0.26,-0.40,
5.653,-10.72,-11.96,2.11,1.70,-0.19,-0.33,
5.653,-10.72,-11.96,2.11,1.71,-0.12,-0.24,
5.653,-10.93,-12.05,1.64,1.71,-0.12,-0.24,
5.654,-10.93,-12.05,1.64,1.69,-0.06,-0.14,
5.654,-11.06,-12.15,1.25,1.69,-0.06,-0.14,
5.655,-11.06,-12.15,1.25,1.66,0.01,-0.03,
5.655,-11.13,-12.27,0.82,1.66,0.01,-0.03,
5.655,-11.13,-12.27,0.82,1.60,0.07,0.09,
5.656,-11.15,-12.33,0.46,1.60,0.07,0.09,
5.656,-11.09,-12.41,0.21,1.60,0.07,0.09,
5.656,-11.09,-12.41,0.21,1.53,0.13,0.21,
5.657,-10.97,-12.54,-0.05,1.53,0.13,0.21,
5.657,-10.97,-12.54,-0.05,1.45,0.18,0.34,
5.686,-10.97,-12.54,-0.05,1.35,0.24,0.48,
5.686,-10.87,-12.67,-0.25,1.35,0.24,0.48,
5.687,-10.72,-12.78,-0.43,1.35,0.24,0.48,
5.687,-10.72,-12.78,-0.43,1.25,0.30,0.62,
5.688,-10.72,-12.78,-0.43,1.15,0.36,0.75,
5.688,-10.55,-12.91,-0.49,1.15,0.36,0.75,
5.688,-10.55,-12.91,-0.49,1.04,0.42,0.87,
5.689,-10.36,-12.97,-0.52,1.04,0.42,0.87,
5.689,-10.36,-12.97,-0.52,0.94,0.47,0.99,
5.69,-10.21,-13.03,-0.46,0.94,0.47,0.99,
5.69,-10.12,-13.10,-0.48,0.94,0.47,0.99,
5.691,-10.12,-13.10,-0.48,0.86,0.51,1.11,
5.691,-9.97,-13.19,-0.49,0.86,0.51,1.11,
5.691,-9.97,-13.19,-0.49,0.77,0.54,1.23,
5.692,-9.79,-13.28,-0.57,0.77,0.54,1.23,
5.692,-9.79,-13.28,-0.57,0.69,0.56,1.35,
5.693,-9.57,-13.46,-0.70,0.69,0.56,1.35,
5.693,-9.57,-13.46,-0.70,0.61,0.57,1.47,
5.694,-9.37,-13.62,-0.78,0.61,0.57,1.47,
5.694,-9.37,-13.62,-0.78,0.53,0.58,1.59,
5.694,-9.23,-13.79,-0.79,0.53,0.58,1.59,
5.695,-9.23,-13.79,-0.79,0.44,0.59,1.72,
5.695,-9.12,-13.91,-0.80,0.44,0.59,1.72,
5.696,-9.12,-13.91,-0.80,0.35,0.60,1.85,
5.696,-8.95,-14.01,-0.78,0.35,0.60,1.85,
5.697,-8.95,-14.01,-0.78,0.25,0.60,1.98,
5.697,-8.78,-14.12,-0.65,0.25,0.60,1.98,
5.697,-8.78,-14.12,-0.65,0.16,0.60,2.13,
5.698,-8.53,-14.20,-0.50,0.16,0.60,2.13,
5.698,-8.53,-14.20,-0.50,0.08,0.58,2.29,
5.699,-8.53,-14.20,-0.50,0.00,0.57,2.45,
5.699,-8.27,-14.31,-0.35,0.00,0.57,2.45,
5.7,-8.27,-14.31,-0.35,-0.06,0.54,2.61,
5.7,-7.84,-14.40,-0.17,-0.06,0.54,2.61,
5.7,-7.84,-14.40,-0.17,-0.12,0.51,2.77,
5.701,-7.40,-14.54,0.10,-0.12,0.51,2.77,
5.701,-7.40,-14.54,0.10,-0.17,0.47,2.93,
5.702,-6.90,-14.72,0.32,-0.17,0.47,2.93,
5.702,-6.90,-14.72,0.32,-0.21,0.43,3.09,
5.703,-6.33,-14.93,0.52,-0.21,0.43,3.09,
5.704,-6.33,-14.93,0.52,-0.24,0.39,3.24,
5.704,-5.68,-15.22,0.70,-0.24,0.39,3.24,
5.704,-5.68,-15.22,0.70,-0.26,0.35,3.39,
5.705,-4.88,-15.53,0.77,-0.26,0.35,3.39,
5.705,-4.88,-15.53,0.77,-0.29,0.31,3.53,
5.706,-4.13,-15.99,0.79,-0.29,0.31,3.53,
5.706,-4.13,-15.99,0.79,-0.31,0.27,3.66,
5.707,-3.42,-16.49,0.77,-0.31,0.27,3.66,
5.707,-3.42,-16.49,0.77,-0.35,0.24,3.80,
5.708,-2.72,-16.95,0.70,-0.35,0.24,3.80,
5.708,-2.72,-16.95,0.70,-0.39,0.21,3.92,
5.708,-2.04,-17.44,0.62,-0.39,0.21,3.92,
5.709,-2.04,-17.44,0.62,-0.44,0.18,4.05,
5.709,-1.39,-17.94,0.47,-0.44,0.18,4.05,
5.71,-1.39,-17.94,0.47,-0.52,0.16,4.18,
5.711,-0.65,-18.48,0.35,-0.52,0.16,4.18,
5.711,-0.65,-18.48,0.35,-0.61,0.15,4.31,
5.712,0.03,-19.04,0.24,-0.61,0.15,4.31,
5.712,0.03,-19.04,0.24,-0.72,0.13,4.44,
5.712,0.71,-19.63,0.18,-0.72,0.13,4.44,
5.713,0.71,-19.63,0.18,-0.85,0.13,4.57,
5.713,1.31,-20.22,0.14,-0.85,0.13,4.57,
5.714,1.31,-20.22,0.14,-0.99,0.13,4.69,
5.714,1.84,-20.74,0.12,-0.99,0.13,4.69,
5.715,1.84,-20.74,0.12,-1.14,0.13,4.83,
5.715,2.32,-21.32,0.22,-1.14,0.13,4.83,
5.716,2.81,-21.94,0.39,-1.14,0.13,4.83,
5.716,2.81,-21.94,0.39,-1.30,0.15,4.98,
5.716,2.81,-21.94,0.39,-1.46,0.18,5.15,
5.717,3.23,-22.46,0.66,-1.46,0.18,5.15,
5.717,3.62,-22.85,1.11,-1.46,0.18,5.15,
5.718,3.62,-22.85,1.11,-1.63,0.24,5.33,
5.718,3.87,-23.11,1.67,-1.63,0.24,5.33,
5.719,3.87,-23.11,1.67,-1.78,0.31,5.52,
5.719,4.18,-23.30,2.36,-1.78,0.31,5.52,
5.72,4.18,-23.30,2.36,-1.92,0.40,5.72,
5.72,4.49,-23.43,3.16,-1.92,0.40,5.72,
5.72,4.49,-23.43,3.16,-2.03,0.49,5.94,
5.721,4.76,-23.48,3.98,-2.03,0.49,5.94,
5.721,4.76,-23.48,3.98,-2.11,0.61,6.17,
5.722,4.98,-23.41,4.81,-2.11,0.61,6.17,
5.722,4.98,-23.41,4.81,-2.15,0.75,6.40,
5.722,4.98,-23.41,4.81,-2.16,0.92,6.64,
5.723,5.15,-23.25,5.64,-2.16,0.92,6.64,
5.723,5.27,-23.00,6.37,-2.16,0.92,6.64,
5.724,5.27,-23.00,6.37,-2.13,1.11,6.88,
5.724,5.41,-22.70,7.06,-2.13,1.11,6.88,
5.725,5.41,-22.70,7.06,-2.07,1.33,7.12,
5.725,5.71,-22.39,7.57,-2.07,1.33,7.12,
5.725,5.71,-22.39,7.57,-1.99,1.55,7.36,
6.101,6.14,-22.12,7.94,-1.99,1.55,7.36,
6.102,6.14,-22.12,7.94,-1.88,1.78,7.60,
6.102,6.78,-21.94,8.15,-1.88,1.78,7.60,
6.102,6.78,-21.94,8.15,-1.75,1.99,7.82,
6.103,6.78,-21.94,8.15,-1.62,2.18,8.02,
6.103,7.70,-21.90,8.20,-1.62,2.18,8.02,
6.104,7.70,-21.90,8.20,-1.47,2.35,8.20,
6.104,8.68,-22.00,8.12,-1.47,2.35,8.20,
6.104,8.68,-22.00,8.12,-1.32,2.50,8.37,
6.105,9.75,-22.20,7.98,-1.32,2.50,8.37,
6.165,9.75,-22.20,7.98,-1.18,2.64,8.51,
6.165,10.84,-22.20,7.76,-1.18,2.64,8.51,
6.166,11.77,-22.14,7.53,-1.18,2.64,8.51,
6.166,11.77,-22.14,7.53,-1.05,2.77,8.62,
6.166,12.57,-22.18,7.31,-1.05,2.77,8.62,
6.167,12.57,-22.18,7.31,-0.92,2.89,8.71,
6.167,13.39,-22.34,7.14,-0.92,2.89,8.71,
6.167,13.39,-22.34,7.14,-0.80,2.98,8.78,
6.168,13.39,-22.34,7.14,-0.67,3.02,8.84,
6.168,14.24,-22.62,7.13,-0.67,3.02,8.84,
6.168,15.10,-23.08,7.26,-0.67,3.02,8.84,
6.169,15.10,-23.08,7.26,-0.53,3.01,8.91,
6.169,15.91,-23.44,7.44,-0.53,3.01,8.91,
6.169,15.91,-23.44,7.44,-0.37,2.96,8.99,
6.17,15.91,-23.44,7.44,-0.20,2.88,9.08,
6.17,16.65,-23.56,7.66,-0.20,2.88,9.08,
6.171,16.65,-23.56,7.66,-0.01,2.77,9.17,
6.171,17.29,-23.55,7.76,-0.01,2.77,9.17,
6.171,17.29,-23.55,7.76,0.20,2.64,9.28,
6.172,18.00,-23.37,7.75,0.20,2.64,9.28,
6.172,18.00,-23.37,7.75,0.41,2.48,9.37,
6.172,18.83,-22.98,7.60,0.41,2.48,9.37,
6.173,18.83,-22.98,7.60,0.61,2.29,9.45,
6.173,19.78,-22.46,7.32,0.61,2.29,9.45,
6.173,19.78,-22.46,7.32,0.79,2.07,9.49,
6.174,20.86,-21.82,6.94,0.79,2.07,9.49,
6.174,21.97,-21.13,6.60,0.79,2.07,9.49,
6.174,21.97,-21.13,6.60,0.95,1.83,9.48,
6.175,21.97,-21.13,6.60,1.07,1.58,9.42,
6.175,22.91,-20.23,6.37,1.07,1.58,9.42,
6.175,23.55,-19.14,6.22,1.07,1.58,9.42,
6.176,23.55,-19.14,6.22,1.17,1.30,9.30,
6.176,23.80,-17.87,6.13,1.17,1.30,9.30,
6.176,23.80,-17.87,6.13,1.24,1.03,9.15,
6.177,23.61,-17.00,6.86,1.24,1.03,9.15,
6.177,23.61,-17.00,6.86,1.31,0.75,8.97,
6.177,23.61,-17.00,6.86,1.45,0.36,8.79,
6.178,23.80,-15.85,7.28,1.45,0.36,8.79,
6.178,24.43,-14.53,6.52,1.45,0.36,8.79,
6.178,24.43,-14.53,6.52,1.64,-0.06,8.59,
6.178,24.80,-13.75,6.34,1.64,-0.06,8.59,
6.179,24.80,-13.75,6.34,1.76,-0.36,8.36,
6.179,24.80,-13.75,6.34,1.86,-0.62,8.10,
6.18,25.36,-12.93,7.01,1.86,-0.62,8.10,
6.18,25.36,-12.93,7.01,2.01,-0.86,7.82,
6.18,25.85,-11.94,7.85,2.01,-0.86,7.82,
6.181,26.01,-11.04,8.45,2.01,-0.86,7.82,
6.181,26.01,-11.04,8.45,2.21,-1.07,7.52,
6.181,26.01,-11.04,8.45,2.46,-1.24,7.21,
6.182,25.99,-10.20,8.85,2.46,-1.24,7.21,
6.182,25.94,-9.18,8.99,2.46,-1.24,7.21,
6.182,25.94,-9.18,8.99,2.75,-1.35,6.89,
6.183,25.84,-8.10,8.75,2.75,-1.35,6.89,
6.183,25.84,-8.10,8.75,3.06,-1.39,6.55,
6.183,25.67,-7.13,8.08,3.06,-1.39,6.55,
6.184,25.67,-7.13,8.08,3.38,-1.36,6.19,
6.184,25.67,-7.13,8.08,3.67,-1.27,5.81,
6.184,25.40,-6.19,7.04,3.67,-1.27,5.81,
6.185,24.95,-5.32,5.64,3.67,-1.27,5.81,
6.185,24.95,-5.32,5.64,3.91,-1.12,5.42,
6.185,24.35,-4.46,4.06,3.91,-1.12,5.42,
6.186,24.35,-4.46,4.06,4.07,-0.89,5.02,
6.186,23.71,-3.66,2.43,4.07,-0.89,5.02,
6.186,23.71,-3.66,2.43,4.14,-0.60,4.63,
6.187,22.97,-2.91,0.83,4.14,-0.60,4.63,
6.187,22.97,-2.91,0.83,4.12,-0.27,4.24,
6.187,22.21,-2.23,-0.79,4.12,-0.27,4.24,
6.188,22.21,-2.23,-0.79,4.01,0.09,3.87,
6.188,21.44,-1.61,-2.30,4.01,0.09,3.87,
6.188,21.44,-1.61,-2.30,3.82,0.49,3.52,
6.188,20.63,-1.01,-3.64,3.82,0.49,3.52,
6.189,20.63,-1.01,-3.64,3.55,0.92,3.20,
6.189,19.78,-0.42,-4.72,3.55,0.92,3.20,
6.189,19.78,-0.42,-4.72,3.21,1.36,2.92,
6.19,19.78,-0.42,-4.72,2.81,1.81,2.67,
6.19,18.93,0.12,-5.62,2.81,1.81,2.67,
6.19,18.21,0.62,-6.32,2.81,1.81,2.67,
6.191,18.21,0.62,-6.32,2.39,2.26,2.44,
6.191,17.62,1.09,-6.73,2.39,2.26,2.44,
6.191,17.62,1.09,-6.73,1.93,2.71,2.24,
6.191,17.17,1.51,-6.93,1.93,2.71,2.24,
6.192,17.17,1.51,-6.93,1.47,3.12,2.04,
6.192,17.17,1.51,-6.93,1.02,3.49,1.86,
6.192,16.71,1.76,-6.83,1.02,3.49,1.86,
6.193,16.71,1.76,-6.83,0.59,3.82,1.68,
6.193,16.31,2.07,-6.55,0.59,3.82,1.68,
6.193,16.31,2.07,-6.55,0.20,4.11,1.50,
6.193,15.98,2.29,-6.11,0.20,4.11,1.50,
6.194,15.75,2.53,-5.56,0.20,4.11,1.50,
6.194,15.75,2.53,-5.56,-0.16,4.34,1.33,
6.194,15.75,2.53,-5.56,-0.46,4.51,1.16,
6.195,15.48,2.64,-4.92,-0.46,4.51,1.16,
6.195,15.48,2.64,-4.92,-0.71,4.64,0.99,
6.195,15.23,2.66,-4.25,-0.71,4.64,0.99,
6.196,14.90,2.74,-3.61,-0.71,4.64,0.99,
6.196,14.90,2.74,-3.61,-0.92,4.72,0.82,
6.196,14.56,2.77,-3.05,-0.92,4.72,0.82,
6.197,14.56,2.77,-3.05,-1.07,4.77,0.67,
6.197,14.56,2.77,-3.05,-1.18,4.78,0.52,
6.197,14.15,2.80,-2.53,-1.18,4.78,0.52,
6.224,13.66,2.77,-2.08,-1.18,4.78,0.52,
6.225,13.66,2.77,-2.08,-1.25,4.77,0.38,
6.225,13.66,2.77,-2.08,-1.28,4.72,0.26,
6.226,13.06,2.80,-1.79,-1.28,4.72,0.26,
6.226,13.06,2.80,-1.79,-1.28,4.63,0.17,
6.226,12.40,2.92,-1.59,-1.28,4.63,0.17,
6.226,12.40,2.92,-1.59,-1.26,4.50,0.10,
6.227,11.85,3.09,-1.44,-1.26,4.50,0.10,
6.227,11.85,3.09,-1.44,-1.21,4.33,0.05,
6.227,11.35,3.29,-1.38,-1.21,4.33,0.05,
6.228,11.35,3.29,-1.38,-1.16,4.12,0.03,
6.228,11.00,3.43,-1.36,-1.16,4.12,0.03,
6.228,11.00,3.43,-1.36,-1.09,3.88,0.02,
6.229,10.66,3.56,-1.47,-1.09,3.88,0.02,
6.229,10.66,3.56,-1.47,-1.02,3.61,0.03,
6.229,10.43,3.69,-1.66,-1.02,3.61,0.03,
6.23,10.43,3.69,-1.66,-0.96,3.31,0.05,
6.23,10.24,3.88,-1.88,-0.96,3.31,0.05,
6.23,10.16,4.04,-2.10,-0.96,3.31,0.05,
6.231,10.16,4.04,-2.10,-0.91,2.99,0.08,
6.231,10.16,4.04,-2.10,-0.88,2.66,0.12,
6.231,10.07,4.20,-2.33,-0.88,2.66,0.12,
6.232,10.07,4.20,-2.33,-0.86,2.32,0.17,
6.232,10.13,4.42,-2.55,-0.86,2.32,0.17,
6.232,10.13,4.65,-2.70,-0.86,2.32,0.17,
6.233,10.13,4.65,-2.70,-0.86,2.01,0.22,
6.233,10.17,4.75,-2.76,-0.86,2.01,0.22,
6.233,10.17,4.75,-2.76,-0.88,1.69,0.27,
6.233,10.31,4.93,-2.67,-0.88,1.69,0.27,
6.234,10.31,4.93,-2.67,-0.90,1.38,0.34,
6.234,10.31,4.93,-2.67,-0.93,1.07,0.42,
6.235,10.54,5.08,-2.49,-0.93,1.07,0.42,
6.235,10.54,5.08,-2.49,-0.95,0.76,0.49,
6.235,10.88,5.24,-2.27,-0.95,0.76,0.49,
6.236,10.88,5.24,-2.27,-0.97,0.46,0.57,
6.236,11.32,5.36,-1.96,-0.97,0.46,0.57,
6.236,11.32,5.36,-1.96,-0.98,0.16,0.64,
6.236,11.86,5.52,-1.59,-0.98,0.16,0.64,
6.237,12.61,5.56,-1.28,-0.98,0.16,0.64,
6.237,12.61,5.56,-1.28,-0.97,-0.13,0.69,
6.237,13.19,5.69,-0.96,-0.97,-0.13,0.69,
6.238,13.19,5.69,-0.96,-0.97,-0.43,0.70,
6.238,13.55,5.90,-0.55,-0.97,-0.43,0.70,
6.238,13.55,5.90,-0.55,-0.96,-0.71,0.67,
6.239,13.80,6.09,-0.13,-0.96,-0.71,0.67,
6.239,13.80,6.09,-0.13,-0.94,-0.99,0.64,
6.24,14.05,6.20,0.32,-0.94,-0.99,0.64,
6.24,14.05,6.20,0.32,-0.91,-1.24,0.61,
6.24,14.42,6.30,0.76,-0.91,-1.24,0.61,
6.241,14.42,6.30,0.76,-0.86,-1.47,0.58,
6.241,14.85,6.36,1.13,-0.86,-1.47,0.58,
6.242,14.85,6.36,1.13,-0.79,-1.67,0.54,
6.242,14.85,6.36,1.13,-0.70,-1.85,0.48,
6.242,15.24,6.34,1.42,-0.70,-1.85,0.48,
6.243,15.53,6.29,1.66,-0.70,-1.85,0.48,
6.243,15.53,6.29,1.66,-0.61,-2.01,0.41,
6.243,15.85,6.25,1.77,-0.61,-2.01,0.41,
6.244,15.85,6.25,1.77,-0.52,-2.16,0.32,
6.244,15.85,6.25,1.77,-0.43,-2.30,0.20,
6.245,16.13,6.20,1.84,-0.43,-2.30,0.20,
6.245,16.13,6.20,1.84,-0.35,-2.45,0.06,
6.245,16.38,6.06,1.82,-0.35,-2.45,0.06,
6.246,16.38,6.06,1.82,-0.28,-2.60,-0.09,
6.246,16.52,5.92,1.71,-0.28,-2.60,-0.09,
6.247,16.52,5.92,1.71,-0.23,-2.75,-0.26,
6.247,16.62,5.75,1.56,-0.23,-2.75,-0.26,
6.247,16.62,5.75,1.56,-0.19,-2.89,-0.45,
6.248,16.65,5.58,1.39,-0.19,-2.89,-0.45,
6.248,16.68,5.31,1.18,-0.19,-2.89,-0.45,
6.248,16.68,5.31,1.18,-0.18,-3.02,-0.63,
6.249,16.71,5.02,1.03,-0.18,-3.02,-0.63,
6.249,16.71,5.02,1.03,-0.19,-3.13,-0.82,
6.25,16.74,4.67,0.88,-0.19,-3.13,-0.82,
6.25,16.74,4.67,0.88,-0.22,-3.23,-1.00,
6.251,16.73,4.30,0.80,-0.22,-3.23,-1.00,
6.251,16.73,4.30,0.80,-0.27,-3.32,-1.18,
6.251,16.79,3.92,0.72,-0.27,-3.32,-1.18,
6.252,16.79,3.92,0.72,-0.34,-3.39,-1.36,
6.252,16.89,3.49,0.70,-0.34,-3.39,-1.36,
6.252,16.89,3.49,0.70,-0.42,-3.45,-1.54,
6.253,16.89,3.49,0.70,-0.51,-3.49,-1.72,
6.253,16.99,3.03,0.68,-0.51,-3.49,-1.72,
6.254,16.99,3.03,0.68,-0.62,-3.51,-1.90,
6.254,16.97,2.45,0.78,-0.62,-3.51,-1.90,
6.254,16.88,1.86,0.94,-0.62,-3.51,-1.90,
6.255,16.88,1.86,0.94,-0.74,-3.50,-2.07,
6.255,16.80,1.27,1.13,-0.74,-3.50,-2.07,
6.256,16.80,1.27,1.13,-0.87,-3.46,-2.24,
6.256,16.80,1.27,1.13,-0.99,-3.40,-2.39,
6.256,16.62,0.65,1.50,-0.99,-3.40,-2.39,
6.257,16.40,0.09,1.90,-0.99,-3.40,-2.39,
6.257,16.40,0.09,1.90,-1.11,-3.31,-2.53,
6.257,16.40,0.09,1.90,-1.22,-3.21,-2.65,
6.258,16.02,-0.46,2.50,-1.22,-3.21,-2.65,
6.258,16.02,-0.46,2.50,-1.32,-3.09,-2.74,
6.259,15.51,-0.95,3.30,-1.32,-3.09,-2.74,
6.259,14.94,-1.27,3.99,-1.32,-3.09,-2.74,
6.259,14.94,-1.27,3.99,-1.38,-2.97,-2.81,
6.26,14.38,-1.52,4.50,-1.38,-2.97,-2.81,
6.26,14.38,-1.52,4.50,-1.41,-2.83,-2.86,
6.289,14.38,-1.52,4.50,-1.44,-2.65,-2.89,
6.289,13.69,-1.67,5.08,-1.44,-2.65,-2.89,
6.29,13.69,-1.67,5.08,-1.45,-2.45,-2.91,
6.29,12.95,-1.82,5.69,-1.45,-2.45,-2.91,
6.291,12.26,-1.94,6.42,-1.45,-2.45,-2.91,
6.291,12.26,-1.94,6.42,-1.43,-2.26,-2.92,
6.292,11.71,-2.02,7.16,-1.43,-2.26,-2.92,
6.293,11.71,-2.02,7.16,-1.38,-2.10,-2.91,
6.293,11.14,-2.09,7.77,-1.38,-2.10,-2.91,
6.294,11.14,-2.09,7.77,-1.29,-1.98,-2.88,
6.294,10.81,-2.29,8.20,-1.29,-1.98,-2.88,
6.295,10.81,-2.29,8.20,-1.16,-1.89,-2.84,
6.295,10.65,-2.50,8.49,-1.16,-1.89,-2.84,
6.295,10.65,-2.50,8.49,-1.00,-1.82,-2.79,
6.296,10.65,-2.50,8.49,-0.83,-1.78,-2.77,
6.296,10.70,-2.71,8.69,-0.83,-1.78,-2.77,
6.297,10.70,-2.71,8.69,-0.65,-1.76,-2.75,
6.297,10.81,-3.03,8.68,-0.65,-1.76,-2.75,
6.298,10.81,-3.03,8.68,-0.47,-1.79,-2.74,
6.298,11.01,-3.43,8.57,-0.47,-1.79,-2.74,
6.299,11.28,-3.90,8.44,-0.47,-1.79,-2.74,
6.299,11.28,-3.90,8.44,-0.30,-1.86,-2.75,
6.299,11.61,-4.31,8.25,-0.30,-1.86,-2.75,
6.3,11.61,-4.31,8.25,-0.14,-1.98,-2.77,
6.3,11.96,-4.83,8.01,-0.14,-1.98,-2.77,
6.301,11.96,-4.83,8.01,0.00,-2.12,-2.82,
6.748,12.46,-5.44,7.82,0.00,-2.12,-2.82,
6.749,12.46,-5.44,7.82,0.13,-2.27,-2.88,
6.749,12.46,-5.44,7.82,0.23,-2.44,-2.95,
6.749,12.95,-6.18,7.69,0.23,-2.44,-2.95,
6.75,12.95,-6.18,7.69,0.32,-2.61,-3.04,
6.75,13.43,-6.97,7.61,0.32,-2.61,-3.04,
6.751,13.43,-6.97,7.61,0.40,-2.76,-3.12,
6.751,13.72,-7.67,7.63,0.40,-2.76,-3.12,
6.751,13.78,-8.18,7.76,0.40,-2.76,-3.12,
6.752,13.78,-8.18,7.76,0.45,-2.91,-3.20,
6.752,13.78,-8.18,7.76,0.50,-3.02,-3.28,
6.753,13.68,-8.62,7.95,0.50,-3.02,-3.28,
6.753,13.68,-8.62,7.95,0.54,-3.11,-3.34,
6.753,13.53,-8.86,8.18,0.54,-3.11,-3.34,
6.754,13.53,-8.86,8.18,0.58,-3.19,-3.39,
6.754,13.41,-9.11,8.42,0.58,-3.19,-3.39,
6.754,13.41,-9.11,8.42,0.62,-3.24,-3.43,
6.755,13.28,-9.25,8.67,0.62,-3.24,-3.43,
6.755,13.28,-9.25,8.67,0.67,-3.28,-3.47,
6.756,13.19,-9.38,8.90,0.67,-3.28,-3.47,
6.756,13.19,-9.38,8.90,0.71,-3.31,-3.51,
6.757,13.01,-9.41,9.05,0.71,-3.31,-3.51,
6.757,13.01,-9.41,9.05,0.76,-3.35,-3.55,
6.757,12.87,-9.31,9.17,0.76,-3.35,-3.55,
6.758,12.74,-9.14,9.22,0.76,-3.35,-3.55,
6.758,12.74,-9.14,9.22,0.81,-3.39,-3.61,
6.759,12.74,-9.14,9.22,0.85,-3.43,-3.67,
6.759,12.66,-8.97,9.18,0.85,-3.43,-3.67,
6.76,12.62,-8.83,9.08,0.85,-3.43,-3.67,
6.76,12.62,-8.83,9.08,0.89,-3.46,-3.75,
6.76,12.62,-8.83,9.08,0.91,-3.50,-3.85,
6.761,12.58,-8.73,8.89,0.91,-3.50,-3.85,
6.761,12.45,-8.73,8.67,0.91,-3.50,-3.85,
6.761,12.45,-8.73,8.67,0.92,-3.54,-3.96,
6.762,12.25,-8.74,8.52,0.92,-3.54,-3.96,
6.762,12.25,-8.74,8.52,0.90,-3.59,-4.10,
6.763,12.08,-8.78,8.39,0.90,-3.59,-4.10,
6.763,12.08,-8.78,8.39,0.86,-3.64,-4.24,
6.764,12.08,-8.78,8.39,0.80,-3.69,-4.39,
6.764,11.94,-8.98,8.33,0.80,-3.69,-4.39,
6.764,11.99,-9.43,8.35,0.80,-3.69,-4.39,
6.765,11.99,-9.43,8.35,0.73,-3.74,-4.55,
6.765,12.05,-10.08,8.40,0.73,-3.74,-4.55,
6.766,12.05,-10.08,8.40,0.66,-3.77,-4.72,
6.766,11.91,-10.78,8.44,0.66,-3.77,-4.72,
6.766,11.91,-10.78,8.44,0.58,-3.82,-4.89,
6.767,11.59,-11.35,8.55,0.58,-3.82,-4.89,
6.767,11.59,-11.35,8.55,0.49,-3.86,-5.06,
6.768,11.59,-11.35,8.55,0.38,-3.92,-5.23,
6.768,11.14,-11.74,8.81,0.38,-3.92,-5.23,
6.769,11.14,-11.74,8.81,0.27,-3.98,-5.37,
6.769,10.62,-12.03,9.16,0.27,-3.98,-5.37,
6.769,10.62,-12.03,9.16,0.17,-4.01,-5.51,
6.77,10.23,-12.32,9.55,0.17,-4.01,-5.51,
6.77,9.97,-12.75,9.94,0.17,-4.01,-5.51,
6.771,9.97,-12.75,9.94,0.07,-4.03,-5.65,
6.771,9.73,-13.29,10.43,0.07,-4.03,-5.65,
6.771,9.73,-13.29,10.43,-0.03,-4.03,-5.78,
6.772,9.73,-13.29,10.43,-0.12,-4.02,-5.90,
6.773,9.44,-13.81,10.99,-0.12,-4.02,-5.90,
6.773,9.12,-14.31,11.59,-0.12,-4.02,-5.90,
6.773,9.12,-14.31,11.59,-0.20,-4.01,-6.02,
6.774,8.75,-14.79,12.20,-0.20,-4.01,-6.02,
6.774,8.75,-14.79,12.20,-0.27,-3.98,-6.15,
6.774,8.75,-14.79,12.20,-0.32,-3.93,-6.27,
6.775,8.38,-15.23,12.80,-0.32,-3.93,-6.27,
6.775,8.11,-15.69,13.41,-0.32,-3.93,-6.27,
6.776,8.11,-15.69,13.41,-0.34,-3.85,-6.38,
6.776,7.84,-16.24,13.86,-0.34,-3.85,-6.38,
6.777,7.84,-16.24,13.86,-0.34,-3.73,-6.50,
6.777,7.55,-16.88,14.05,-0.34,-3.73,-6.50,
6.778,7.55,-16.88,14.05,-0.31,-3.57,-6.61,
6.778,7.20,-17.54,14.00,-0.31,-3.57,-6.61,
6.778,7.20,-17.54,14.00,-0.27,-3.39,-6.71,
6.807,6.72,-18.07,13.76,-0.27,-3.39,-6.71,
6.807,6.72,-18.07,13.76,-0.22,-3.18,-6.79,
6.808,6.72,-18.07,13.76,-0.16,-2.95,-6.85,
6.808,6.24,-18.50,13.35,-0.16,-2.95,-6.85,
6.808,5.74,-18.84,12.79,-0.16,-2.95,-6.85,
6.809,5.74,-18.84,12.79,-0.11,-2.71,-6.88,
6.809,5.16,-19.16,12.22,-0.11,-2.71,-6.88,
6.81,5.16,-19.16,12.22,-0.07,-2.47,-6.91,
6.81,5.16,-19.16,12.22,-0.05,-2.20,-6.90,
6.811,4.49,-19.39,11.56,-0.05,-2.20,-6.90,
6.811,4.49,-19.39,11.56,-0.03,-1.94,-6.87,
6.811,3.72,-19.52,10.87,-0.03,-1.94,-6.87,
6.812,3.72,-19.52,10.87,-0.04,-1.67,-6.81,
6.812,2.92,-19.53,10.18,-0.04,-1.67,-6.81,
6.813,2.20,-19.44,9.47,-0.04,-1.67,-6.81,
6.813,2.20,-19.44,9.47,-0.06,-1.42,-6.72,
6.814,1.60,-19.34,8.82,-0.06,-1.42,-6.72,
6.814,1.60,-19.34,8.82,-0.09,-1.17,-6.61,
6.814,1.60,-19.34,8.82,-0.15,-0.93,-6.47,
6.815,1.23,-19.27,8.18,-0.15,-0.93,-6.47,
6.815,1.23,-19.27,8.18,-0.22,-0.70,-6.34,
6.816,1.04,-19.35,7.65,-0.22,-0.70,-6.34,
6.816,0.67,-19.36,7.22,-0.22,-0.70,-6.34,
6.816,0.67,-19.36,7.22,-0.30,-0.48,-6.20,
6.817,0.67,-19.36,7.22,-0.39,-0.26,-6.06,
6.817,0.07,-19.24,6.97,-0.39,-0.26,-6.06,
6.818,-0.69,-19.00,7.00,-0.39,-0.26,-6.06,
6.818,-0.69,-19.00,7.00,-0.49,-0.03,-5.91,
6.818,-0.69,-19.00,7.00,-0.59,0.20,-5.73,
6.819,-1.59,-18.66,7.28,-0.59,0.20,-5.73,
6.819,-2.26,-18.26,7.88,-0.59,0.20,-5.73,
6.82,-2.26,-18.26,7.88,-0.67,0.42,-5.52,
6.82,-2.59,-17.92,8.78,-0.67,0.42,-5.52,
6.82,-2.59,-17.92,8.78,-0.72,0.60,-5.29,
6.821,-2.70,-17.55,9.87,-0.72,0.60,-5.29,
6.821,-2.70,-17.55,9.87,-0.71,0.77,-5.04,
6.821,-2.70,-17.55,9.87,-0.64,0.90,-4.81,
6.822,-2.59,-17.03,10.90,-0.64,0.90,-4.81,
6.822,-2.59,-17.03,10.90,-0.49,1.01,-4.59,
6.823,-2.51,-16.43,11.76,-0.49,1.01,-4.59,
6.823,-2.47,-15.82,12.39,-0.49,1.01,-4.59,
6.823,-2.47,-15.82,12.39,-0.28,1.09,-4.41,
6.824,-2.25,-15.33,12.75,-0.28,1.09,-4.41,
6.824,-2.25,-15.33,12.75,-0.01,1.15,-4.25,
6.825,-2.25,-15.33,12.75,0.31,1.19,-4.11,
6.825,-2.05,-14.97,12.86,0.31,1.19,-4.11,
6.826,-2.05,-14.97,12.86,0.64,1.21,-4.01,
6.826,-1.92,-14.73,12.74,0.64,1.21,-4.01,
6.826,-1.92,-14.73,12.74,0.99,1.21,-3.92,
6.827,-2.05,-14.53,12.38,0.99,1.21,-3.92,
6.827,-2.05,-14.53,12.38,1.33,1.20,-3.85,
6.827,-2.42,-14.24,11.82,1.33,1.20,-3.85,
6.828,-2.93,-13.97,11.08,1.33,1.20,-3.85,
6.828,-2.93,-13.97,11.08,1.65,1.16,-3.77,
6.828,-2.93,-13.97,11.08,1.95,1.10,-3.68,
6.829,-3.45,-13.66,10.25,1.95,1.10,-3.68,
6.829,-3.45,-13.66,10.25,2.20,1.02,-3.60,
6.83,-3.89,-13.38,9.35,2.20,1.02,-3.60,
6.83,-4.27,-13.15,8.52,2.20,1.02,-3.60,
6.83,-4.27,-13.15,8.52,2.42,0.92,-3.51,
6.831,-4.66,-13.00,7.67,2.42,0.92,-3.51,
6.831,-4.66,-13.00,7.67,2.59,0.80,-3.41,
6.831,-4.66,-13.00,7.67,2.72,0.68,-3.31,
6.832,-5.07,-12.80,6.87,2.72,0.68,-3.31,
6.832,-5.50,-12.54,6.13,2.72,0.68,-3.31,
6.833,-5.50,-12.54,6.13,2.82,0.55,-3.20,
6.833,-5.97,-12.26,5.40,2.82,0.55,-3.20,
6.833,-5.97,-12.26,5.40,2.88,0.43,-3.09,
6.834,-5.97,-12.26,5.40,2.91,0.31,-2.96,
6.834,-6.40,-11.93,4.80,2.91,0.31,-2.96,
6.834,-6.77,-11.58,4.27,2.91,0.31,-2.96,
6.835,-6.77,-11.58,4.27,2.90,0.20,-2.83,
6.835,-6.77,-11.58,4.27,2.87,0.10,-2.69,
6.836,-6.98,-11.26,3.85,2.87,0.10,-2.69,
6.836,-7.08,-10.91,3.51,2.87,0.10,-2.69,
6.836,-7.08,-10.91,3.51,2.81,0.01,-2.55,
6.837,-7.08,-10.91,3.51,2.74,-0.07,-2.42,
6.837,-7.10,-10.68,3.27,2.74,-0.07,-2.42,
6.837,-7.10,-10.68,3.27,2.66,-0.14,-2.31,
6.838,-7.07,-10.48,3.12,2.66,-0.14,-2.31,
6.838,-7.00,-10.25,3.06,2.66,-0.14,-2.31,
6.838,-7.00,-10.25,3.06,2.57,-0.20,-2.21,
6.839,-6.96,-10.09,3.00,2.57,-0.20,-2.21,
6.839,-6.96,-10.09,3.00,2.49,-0.26,-2.13,
6.84,-6.96,-10.09,3.00,2.40,-0.30,-2.07,
6.84,-6.96,-9.87,2.97,2.40,-0.30,-2.07,
6.84,-7.03,-9.69,2.98,2.40,-0.30,-2.07,
6.841,-7.03,-9.69,2.98,2.32,-0.34,-2.02,
6.841,-7.20,-9.54,3.02,2.32,-0.34,-2.02,
6.841,-7.20,-9.54,3.02,2.24,-0.37,-1.98,
6.842,-7.42,-9.38,3.05,2.24,-0.37,-1.98,
6.842,-7.42,-9.38,3.05,2.16,-0.39,-1.94,
6.842,-7.42,-9.38,3.05,2.09,-0.40,-1.91,
6.843,-7.71,-9.25,3.05,2.09,-0.40,-1.91,
6.843,-7.71,-9.25,3.05,2.03,-0.42,-1.87,
6.843,-8.01,-9.07,3.08,2.03,-0.42,-1.87,
6.844,-8.01,-9.07,3.08,1.97,-0.43,-1.83,
6.844,-8.28,-8.93,3.08,1.97,-0.43,-1.83,
6.845,-8.28,-8.93,3.08,1.92,-0.45,-1.78,
6.845,-8.56,-8.81,3.07,1.92,-0.45,-1.78,
6.875,-8.56,-8.81,3.07,1.87,-0.47,-1.73,
6.876,-8.80,-8.71,3.05,1.87,-0.47,-1.73,
6.876,-8.80,-8.71,3.05,1.82,-0.51,-1.68,
6.877,-8.97,-8.57,3.01,1.82,-0.51,-1.68,
6.877,-8.97,-8.57,3.01,1.78,-0.55,-1.63,
6.877,-9.10,-8.48,2.96,1.78,-0.55,-1.63,
6.878,-9.10,-8.48,2.96,1.73,-0.59,-1.58,
6.878,-9.20,-8.33,2.88,1.73,-0.59,-1.58,
6.879,-9.27,-8.24,2.76,1.73,-0.59,-1.58,
6.879,-9.27,-8.24,2.76,1.69,-0.65,-1.53,
6.88,-9.31,-8.14,2.67,1.69,-0.65,-1.53,
6.88,-9.31,-8.14,2.67,1.64,-0.70,-1.48,
6.881,-9.31,-8.09,2.59,1.64,-0.70,-1.48,
6.881,-9.31,-8.09,2.59,1.58,-0.75,-1.44,
6.882,-9.33,-8.02,2.54,1.58,-0.75,-1.44,
6.882,-9.33,-8.02,2.54,1.52,-0.80,-1.40,
6.883,-9.39,-7.95,2.54,1.52,-0.80,-1.40,
6.883,-9.39,-7.95,2.54,1.46,-0.83,-1.36,
6.883,-9.46,-7.89,2.60,1.46,-0.83,-1.36,
6.884,-9.46,-7.89,2.60,1.39,-0.86,-1.32,
6.884,-9.46,-7.89,2.60,1.32,-0.88,-1.28,
6.885,-9.50,-7.82,2.70,1.32,-0.88,-1.28,
6.885,-9.46,-7.75,2.80,1.32,-0.88,-1.28,
6.886,-9.46,-7.75,2.80,1.25,-0.88,-1.24,
6.886,-9.48,-7.70,3.00,1.25,-0.88,-1.24,
6.887,-9.48,-7.70,3.00,1.19,-0.88,-1.20,
6.887,-9.46,-7.68,3.18,1.19,-0.88,-1.20,
6.887,-9.46,-7.68,3.18,1.14,-0.86,-1.16,
6.888,-9.49,-7.71,3.34,1.14,-0.86,-1.16,
6.888,-9.49,-7.71,3.34,1.09,-0.84,-1.13,
6.889,-9.48,-7.73,3.47,1.09,-0.84,-1.13,
6.889,-9.48,-7.73,3.47,1.05,-0.80,-1.09,
6.89,-9.47,-7.79,3.57,1.05,-0.80,-1.09,
6.89,-9.47,-7.79,3.57,1.01,-0.76,-1.05,
6.891,-9.49,-7.87,3.68,1.01,-0.76,-1.05,
6.891,-9.49,-7.87,3.68,0.98,-0.70,-1.02,
6.892,-9.59,-7.92,3.71,0.98,-0.70,-1.02,
6.892,-9.59,-7.92,3.71,0.95,-0.64,-0.97,
6.892,-9.60,-7.99,3.82,0.95,-0.64,-0.97,
6.893,-9.60,-7.99,3.82,0.93,-0.57,-0.93,
6.893,-9.68,-8.04,3.81,0.93,-0.57,-0.93,
6.894,-9.68,-8.04,3.81,0.91,-0.50,-0.88,
6.894,-9.78,-8.15,3.80,0.91,-0.50,-0.88,
6.895,-9.78,-8.15,3.80,0.89,-0.43,-0.82,
6.895,-9.82,-8.28,3.77,0.89,-0.43,-0.82,
6.896,-9.82,-8.28,3.77,0.88,-0.35,-0.76,
6.896,-10.00,-8.50,3.71,0.88,-0.35,-0.76,
6.897,-10.00,-8.50,3.71,0.87,-0.28,-0.69,
6.897,-10.19,-8.74,3.61,0.87,-0.28,-0.69,
6.897,-10.19,-8.74,3.61,0.87,-0.22,-0.61,
6.898,-10.44,-8.98,3.43,0.87,-0.22,-0.61,
6.898,-10.44,-8.98,3.43,0.86,-0.16,-0.52,
6.899,-10.69,-9.24,3.21,0.86,-0.16,-0.52,
6.899,-10.69,-9.24,3.21,0.86,-0.12,-0.40,
6.9,-10.83,-9.46,2.98,0.86,-0.12,-0.40,
6.9,-10.83,-9.46,2.98,0.85,-0.09,-0.26,
6.901,-10.83,-9.46,2.98,0.83,-0.08,-0.11,
6.901,-10.86,-9.64,2.80,0.83,-0.08,-0.11,
6.901,-10.86,-9.64,2.80,0.80,-0.08,0.05,
6.902,-10.85,-9.80,2.69,0.80,-0.08,0.05,
6.902,-10.85,-9.80,2.69,0.77,-0.09,0.22,
6.903,-10.75,-10.03,2.59,0.77,-0.09,0.22,
6.903,-10.75,-10.03,2.59,0.74,-0.10,0.39,
6.904,-10.60,-10.23,2.56,0.74,-0.10,0.39,
6.904,-10.60,-10.23,2.56,0.69,-0.12,0.57,
6.905,-10.41,-10.44,2.60,0.69,-0.12,0.57,
6.905,-10.41,-10.44,2.60,0.66,-0.14,0.74,
6.906,-10.09,-10.68,2.63,0.66,-0.14,0.74,
6.906,-9.83,-10.87,2.75,0.66,-0.14,0.74,
6.906,-9.83,-10.87,2.75,0.62,-0.16,0.92,
6.907,-9.52,-11.04,2.88,0.62,-0.16,0.92,
6.907,-9.52,-11.04,2.88,0.59,-0.17,1.10,
6.908,-9.10,-11.19,3.04,0.59,-0.17,1.10,
6.908,-9.10,-11.19,3.04,0.56,-0.18,1.27,
6.909,-8.66,-11.32,3.21,0.56,-0.18,1.27,
6.909,-8.66,-11.32,3.21,0.54,-0.19,1.43,
7.263,-8.26,-11.48,3.42,0.54,-0.19,1.43,
7.263,-8.26,-11.48,3.42,0.53,-0.19,1.59,
7.264,-7.97,-11.61,3.59,0.53,-0.19,1.59,
7.264,-7.97,-11.61,3.59,0.51,-0.17,1.74,
7.264,-7.70,-11.72,3.70,0.51,-0.17,1.74,
7.265,-7.70,-11.72,3.70,0.50,-0.13,1.88,
7.265,-7.70,-11.72,3.70,0.49,-0.07,2.03,
7.265,-7.44,-11.78,3.86,0.49,-0.07,2.03,
7.266,-7.44,-11.78,3.86,0.48,-0.00,2.17,
7.266,-7.15,-11.84,3.94,0.48,-0.00,2.17,
7.266,-7.15,-11.84,3.94,0.47,0.07,2.32,
7.267,-6.77,-11.93,3.96,0.47,0.07,2.32,
7.267,-6.77,-11.93,3.96,0.45,0.15,2.47,
7.267,-6.29,-12.06,3.98,0.45,0.15,2.47,
7.268,-5.69,-12.32,3.88,0.45,0.15,2.47,
7.268,-5.69,-12.32,3.88,0.43,0.24,2.60,
7.268,-5.05,-12.65,3.72,0.43,0.24,2.60,
7.269,-5.05,-12.65,3.72,0.40,0.34,2.73,
7.269,-4.52,-13.06,3.54,0.40,0.34,2.73,
7.269,-4.52,-13.06,3.54,0.36,0.45,2.84,
7.27,-4.17,-13.43,3.32,0.36,0.45,2.84,
7.27,-4.17,-13.43,3.32,0.29,0.57,2.95,
7.27,-3.92,-13.80,3.01,0.29,0.57,2.95,
7.271,-3.92,-13.80,3.01,0.21,0.70,3.06,
7.3,-3.65,-14.11,2.78,0.21,0.70,3.06,
7.3,-3.65,-14.11,2.78,0.10,0.85,3.18,
7.301,-3.35,-14.43,2.59,0.10,0.85,3.18,
7.301,-3.35,-14.43,2.59,-0.03,1.01,3.32,
7.301,-2.99,-14.82,2.42,-0.03,1.01,3.32,
7.302,-2.99,-14.82,2.42,-0.18,1.17,3.46,
7.302,-2.52,-15.23,2.23,-0.18,1.17,3.46,
7.303,-2.52,-15.23,2.23,-0.35,1.33,3.60,
7.303,-1.99,-15.78,2.02,-0.35,1.33,3.60,
7.304,-1.99,-15.78,2.02,-0.52,1.48,3.75,
7.304,-1.49,-16.33,1.82,-0.52,1.48,3.75,
7.305,-1.49,-16.33,1.82,-0.71,1.63,3.90,
7.305,-1.00,-16.87,1.56,-0.71,1.63,3.90,
7.306,-1.00,-16.87,1.56,-0.92,1.76,4.04,
7.306,-0.57,-17.33,1.26,-0.92,1.76,4.04,
7.306,-0.57,-17.33,1.26,-1.15,1.88,4.19,
7.307,-0.57,-17.33,1.26,-1.39,1.97,4.33,
7.307,-0.14,-17.72,0.95,-1.39,1.97,4.33,
7.307,-0.14,-17.72,0.95,-1.66,2.04,4.48,
7.308,0.28,-18.08,0.70,-1.66,2.04,4.48,
7.308,0.28,-18.08,0.70,-1.93,2.09,4.63,
7.309,0.71,-18.46,0.55,-1.93,2.09,4.63,
7.309,0.71,-18.46,0.55,-2.21,2.12,4.78,
7.309,1.14,-18.85,0.60,-2.21,2.12,4.78,
7.31,1.46,-19.23,0.85,-2.21,2.12,4.78,
7.31,1.46,-19.23,0.85,-2.49,2.14,4.95,
7.311,1.82,-19.63,1.24,-2.49,2.14,4.95,
7.311,1.82,-19.63,1.24,-2.75,2.16,5.13,
7.311,1.82,-19.63,1.24,-2.99,2.18,5.33,
7.312,2.23,-19.96,1.74,-2.99,2.18,5.33,
7.312,2.68,-20.27,2.29,-2.99,2.18,5.33,
7.313,2.68,-20.27,2.29,-3.19,2.20,5.55,
7.313,2.68,-20.27,2.29,-3.36,2.21,5.77,
7.313,3.24,-20.54,2.86,-3.36,2.21,5.77,
7.314,3.84,-20.79,3.49,-3.36,2.21,5.77,
7.314,3.84,-20.79,3.49,-3.50,2.20,5.99,
7.315,4.50,-21.08,4.13,-3.50,2.20,5.99,
7.315,4.50,-21.08,4.13,-3.59,2.17,6.22,
7.316,4.50,-21.08,4.13,-3.64,2.13,6.44,
7.316,5.19,-21.30,4.79,-3.64,2.13,6.44,
7.316,5.19,-21.30,4.79,-3.64,2.07,6.66,
7.317,5.97,-21.52,5.43,-3.64,2.07,6.66,
7.317,5.97,-21.52,5.43,-3.59,2.00,6.87,
7.317,6.80,-21.64,6.10,-3.59,2.00,6.87,
7.318,7.68,-21.66,6.70,-3.59,2.00,6.87,
7.318,7.68,-21.66,6.70,-3.50,1.93,7.08,
7.319,8.57,-21.62,7.23,-3.50,1.93,7.08,
7.319,8.57,-21.62,7.23,-3.35,1.85,7.29,
7.319,8.57,-21.62,7.23,-3.16,1.77,7.48,
7.32,9.42,-21.47,7.70,-3.16,1.77,7.48,
7.32,10.30,-21.20,8.13,-3.16,1.77,7.48,
7.32,10.30,-21.20,8.13,-2.93,1.69,7.65,
7.321,10.30,-21.20,8.13,-2.67,1.61,7.80,
7.321,11.18,-20.76,8.44,-2.67,1.61,7.80,
7.322,12.12,-20.19,8.66,-2.67,1.61,7.80,
7.322,12.12,-20.19,8.66,-2.38,1.54,7.93,
7.322,13.10,-19.51,8.76,-2.38,1.54,7.93,
7.323,13.10,-19.51,8.76,-2.07,1.46,8.03,
7.323,13.10,-19.51,8.76,-1.76,1.38,8.08,
7.324,14.12,-18.90,8.70,-1.76,1.38,8.08,
7.324,15.14,-18.28,8.59,-1.76,1.38,8.08,
7.324,15.14,-18.28,8.59,-1.44,1.29,8.10,
7.325,15.14,-18.28,8.59,-1.12,1.20,8.08,
7.325,16.02,-17.71,8.40,-1.12,1.20,8.08,
7.326,16.02,-17.71,8.40,-0.80,1.09,8.02,
