
time,ax,ay,az,wx,wy,wz,
0.002,0.27,1.33,1.24,-0.35,-0.52,-0.25,
0.002,0.26,1.20,1.53,-0.35,-0.52,-0.25,
0.003,0.26,1.20,1.53,-0.28,-0.48,-0.30,
0.003,0.08,1.09,1.79,-0.28,-0.48,-0.30,
0.01,0.08,1.09,1.79,-0.20,-0.43,-0.34,
0.011,-0.25,0.97,1.89,-0.20,-0.43,-0.34,
0.012,-0.66,0.86,1.85,-0.20,-0.43,-0.34,
0.013,-0.66,0.86,1.85,-0.11,-0.39,-0.37,
0.017,-0.66,0.86,1.85,-0.02,-0.32,-0.37,
0.018,-1.05,0.76,1.63,-0.02,-0.32,-0.37,
0.022,-1.48,0.67,1.31,-0.02,-0.32,-0.37,
0.022,-1.48,0.67,1.31,0.05,-0.24,-0.34,
0.027,-1.48,0.67,1.31,0.11,-0.15,-0.29,
0.028,-1.78,0.64,1.00,0.11,-0.15,-0.29,
0.032,-1.78,0.64,1.00,0.15,-0.07,-0.22,
0.033,-1.95,0.66,0.67,0.15,-0.07,-0.22,
0.037,-2.21,0.72,0.37,0.15,-0.07,-0.22,
0.037,-2.21,0.72,0.37,0.17,0.01,-0.16,
0.05,-2.51,0.82,0.24,0.17,0.01,-0.16,
0.051,-2.51,0.82,0.24,0.18,0.07,-0.09,
0.052,-2.75,0.85,0.20,0.18,0.07,-0.09,
0.052,-2.75,0.85,0.20,0.19,0.13,-0.02,
0.053,-2.90,0.96,0.17,0.19,0.13,-0.02,
0.053,-2.90,0.96,0.17,0.21,0.15,0.05,
0.056,-2.90,0.96,0.17,0.25,0.16,0.12,
0.057,-2.95,1.05,0.04,0.25,0.16,0.12,
0.094,-2.95,1.22,-0.13,0.25,0.16,0.12,
0.095,-2.95,1.22,-0.13,0.28,0.15,0.18,
0.095,-2.86,1.37,-0.29,0.28,0.15,0.18,
0.095,-2.86,1.37,-0.29,0.31,0.11,0.23,
0.096,-2.86,1.37,-0.29,0.34,0.08,0.27,
0.096,-2.73,1.54,-0.54,0.34,0.08,0.27,
0.096,-2.73,1.54,-0.54,0.35,0.05,0.30,
0.097,-2.60,1.67,-0.82,0.35,0.05,0.30,
0.097,-2.60,1.67,-0.82,0.35,0.03,0.31,
0.097,-2.47,1.74,-1.13,0.35,0.03,0.31,
0.102,-2.44,1.78,-1.38,0.35,0.03,0.31,
0.102,-2.44,1.78,-1.38,0.33,0.02,0.32,
0.103,-2.50,1.77,-1.47,0.33,0.02,0.32,
0.103,-2.50,1.77,-1.47,0.28,-0.00,0.32,
0.104,-2.50,1.77,-1.47,0.23,-0.02,0.33,
0.104,-2.58,1.78,-1.45,0.23,-0.02,0.33,
0.105,-2.58,1.78,-1.45,0.18,-0.04,0.35,
0.105,-2.54,1.87,-1.29,0.18,-0.04,0.35,
0.106,-2.35,1.95,-1.11,0.18,-0.04,0.35,
0.106,-2.35,1.95,-1.11,0.14,-0.06,0.36,
0.111,-2.15,2.06,-0.86,0.14,-0.06,0.36,
0.112,-2.15,2.06,-0.86,0.09,-0.08,0.37,
0.115,-1.93,2.07,-0.60,0.09,-0.08,0.37,
0.115,-1.93,2.07,-0.60,0.06,-0.08,0.36,
0.119,-1.77,2.02,-0.35,0.06,-0.08,0.36,
0.12,-1.77,2.02,-0.35,0.03,-0.09,0.33,
0.127,-1.77,2.02,-0.35,0.01,-0.09,0.29,
0.128,-1.68,1.88,-0.11,0.01,-0.09,0.29,
0.129,-1.68,1.88,-0.11,0.00,-0.07,0.26,
0.13,-1.73,1.70,0.04,0.00,-0.07,0.26,
0.134,-1.73,1.70,0.04,-0.01,-0.02,0.23,
0.135,-1.97,1.52,0.19,-0.01,-0.02,0.23,
0.139,-2.18,1.36,0.29,-0.01,-0.02,0.23,
0.14,-2.18,1.36,0.29,-0.01,0.03,0.23,
0.144,-2.35,1.29,0.40,-0.01,0.03,0.23,
0.145,-2.35,1.29,0.40,-0.01,0.09,0.24,
0.149,-2.39,1.28,0.55,-0.01,0.09,0.24,
0.149,-2.39,1.28,0.55,-0.01,0.14,0.27,
0.154,-2.37,1.28,0.76,-0.01,0.14,0.27,
0.154,-2.37,1.28,0.76,-0.00,0.19,0.29,
0.167,-2.32,1.34,0.94,-0.00,0.19,0.29,
0.168,-2.32,1.34,0.94,0.02,0.22,0.31,
0.168,-2.17,1.34,1.07,0.02,0.22,0.31,
0.168,-2.17,1.34,1.07,0.05,0.25,0.32,
0.168,-2.17,1.34,1.07,0.10,0.26,0.33,
0.169,-2.05,1.38,1.15,0.10,0.26,0.33,
0.173,-1.86,1.41,1.09,0.10,0.26,0.33,
0.173,-1.86,1.41,1.09,0.16,0.27,0.33,
0.178,-1.86,1.41,1.09,0.21,0.27,0.32,
0.179,-1.76,1.40,1.00,0.21,0.27,0.32,
0.183,-1.76,1.40,1.00,0.27,0.29,0.31,
0.183,-1.73,1.39,0.93,0.27,0.29,0.31,
0.188,-1.69,1.36,0.87,0.27,0.29,0.31,
0.189,-1.69,1.36,0.87,0.32,0.31,0.30,
0.216,-1.69,1.36,0.87,0.37,0.33,0.29,
0.217,-1.70,1.38,0.76,0.37,0.33,0.29,
0.217,-1.75,1.34,0.66,0.37,0.33,0.29,
0.218,-1.75,1.34,0.66,0.42,0.34,0.29,
0.218,-1.75,1.34,0.66,0.46,0.34,0.29,
0.218,-1.82,1.38,0.57,0.46,0.34,0.29,
0.219,-1.81,1.41,0.53,0.46,0.34,0.29,
0.219,-1.81,1.41,0.53,0.49,0.32,0.29,
0.219,-1.79,1.44,0.49,0.49,0.32,0.29,
0.219,-1.79,1.44,0.49,0.52,0.30,0.29,
0.22,-1.79,1.44,0.49,0.55,0.28,0.29,
0.22,-1.75,1.47,0.45,0.55,0.28,0.29,
0.225,-1.75,1.47,0.45,0.57,0.27,0.30,
0.226,-1.79,1.46,0.33,0.57,0.27,0.30,
0.234,-1.78,1.43,0.26,0.57,0.27,0.30,
0.235,-1.78,1.43,0.26,0.58,0.25,0.31,
0.235,-1.78,1.43,0.26,0.60,0.23,0.32,
0.235,-1.85,1.38,0.20,0.60,0.23,0.32,
0.236,-1.85,1.38,0.20,0.61,0.20,0.33,
0.237,-1.86,1.35,0.19,0.61,0.20,0.33,
0.25,-1.86,1.35,0.19,0.62,0.17,0.34,
0.251,-1.83,1.30,0.19,0.62,0.17,0.34,
0.251,-1.83,1.30,0.19,0.62,0.14,0.35,
0.252,-1.78,1.28,0.23,0.62,0.14,0.35,
0.253,-1.76,1.29,0.30,0.62,0.14,0.35,
0.253,-1.76,1.29,0.30,0.64,0.11,0.35,
0.256,-1.65,1.26,0.34,0.64,0.11,0.35,
0.257,-1.65,1.26,0.34,0.65,0.10,0.37,
0.267,-1.65,1.26,0.34,0.66,0.09,0.38,
0.268,-1.59,1.25,0.41,0.66,0.09,0.38,
0.268,-1.49,1.26,0.43,0.66,0.09,0.38,
0.269,-1.49,1.26,0.43,0.68,0.10,0.39,
0.271,-1.33,1.27,0.45,0.68,0.10,0.39,
0.271,-1.33,1.27,0.45,0.69,0.12,0.41,
0.325,-1.33,1.27,0.45,0.71,0.14,0.42,
0.326,-1.12,1.29,0.45,0.71,0.14,0.42,
0.326,-1.12,1.29,0.45,0.72,0.16,0.42,
0.327,-0.92,1.30,0.44,0.72,0.16,0.42,
0.327,-0.92,1.30,0.44,0.74,0.19,0.41,
0.327,-0.71,1.31,0.41,0.74,0.19,0.41,
0.328,-0.49,1.33,0.33,0.74,0.19,0.41,
0.328,-0.49,1.33,0.33,0.75,0.21,0.40,
0.328,-0.49,1.33,0.33,0.76,0.23,0.38,
0.329,-0.33,1.37,0.24,0.76,0.23,0.38,
0.329,-0.20,1.40,0.12,0.76,0.23,0.38,
0.329,-0.20,1.40,0.12,0.77,0.24,0.36,
0.33,-0.20,1.40,0.12,0.78,0.25,0.33,
0.33,-0.08,1.40,0.02,0.78,0.25,0.33,
0.33,-0.08,1.40,-0.05,0.78,0.25,0.33,
0.33,-0.08,1.40,-0.05,0.79,0.25,0.30,
0.331,-0.08,1.40,-0.05,0.79,0.24,0.27,
0.331,-0.05,1.32,-0.14,0.79,0.24,0.27,
0.331,-0.05,1.32,-0.14,0.80,0.24,0.24,
0.332,-0.06,1.26,-0.24,0.80,0.24,0.24,
0.332,-0.06,1.26,-0.24,0.80,0.22,0.21,
0.332,-0.03,1.21,-0.32,0.80,0.22,0.21,
0.365,0.01,1.20,-0.40,0.80,0.22,0.21,
0.366,0.01,1.20,-0.40,0.80,0.20,0.19,
0.366,0.04,1.19,-0.54,0.80,0.20,0.19,
0.366,0.04,1.19,-0.54,0.80,0.19,0.17,
0.367,0.08,1.13,-0.68,0.80,0.19,0.17,
0.367,0.08,1.13,-0.68,0.79,0.19,0.15,
0.367,0.04,1.02,-0.81,0.79,0.19,0.15,
0.368,0.04,1.02,-0.81,0.77,0.19,0.14,
0.368,0.04,1.02,-0.81,0.75,0.19,0.12,
0.368,0.04,0.97,-0.85,0.75,0.19,0.12,
0.369,0.04,0.97,-0.85,0.72,0.18,0.11,
0.369,0.04,0.91,-0.80,0.72,0.18,0.11,
0.37,0.06,0.86,-0.72,0.72,0.18,0.11,
0.37,0.06,0.86,-0.72,0.69,0.18,0.11,
0.37,0.10,0.84,-0.64,0.69,0.18,0.11,
0.37,0.10,0.84,-0.64,0.67,0.17,0.11,
0.371,0.18,0.81,-0.55,0.67,0.17,0.11,
0.371,0.18,0.81,-0.55,0.65,0.18,0.10,
0.375,0.25,0.80,-0.49,0.65,0.18,0.10,
0.375,0.25,0.80,-0.49,0.63,0.19,0.09,
0.378,0.32,0.75,-0.51,0.63,0.19,0.09,
0.379,0.32,0.75,-0.51,0.61,0.21,0.08,
0.384,0.32,0.75,-0.51,0.59,0.23,0.06,
0.384,0.38,0.72,-0.55,0.59,0.23,0.06,
0.388,0.43,0.65,-0.64,0.59,0.23,0.06,
0.388,0.43,0.65,-0.64,0.57,0.26,0.06,
0.401,0.43,0.59,-0.78,0.57,0.26,0.06,
0.401,0.43,0.59,-0.78,0.55,0.29,0.05,
0.402,0.43,0.59,-0.78,0.51,0.32,0.05,
0.402,0.51,0.60,-0.84,0.51,0.32,0.05,
0.402,0.56,0.64,-0.81,0.51,0.32,0.05,
0.403,0.56,0.64,-0.81,0.48,0.34,0.04,
0.407,0.67,0.72,-0.73,0.48,0.34,0.04,
0.407,0.67,0.72,-0.73,0.44,0.34,0.03,
0.412,0.72,0.79,-0.60,0.44,0.34,0.03,
0.412,0.72,0.79,-0.60,0.41,0.35,0.01,
0.417,0.71,0.79,-0.55,0.41,0.35,0.01,
0.417,0.71,0.79,-0.55,0.39,0.35,-0.02,
0.422,0.71,0.79,-0.55,0.37,0.35,-0.04,
0.422,0.73,0.75,-0.53,0.37,0.35,-0.04,
0.441,0.73,0.75,-0.53,0.35,0.35,-0.06,
0.442,0.71,0.68,-0.51,0.35,0.35,-0.06,
0.442,0.67,0.60,-0.50,0.35,0.35,-0.06,
0.443,0.67,0.60,-0.50,0.34,0.32,-0.08,
0.443,0.71,0.56,-0.51,0.34,0.32,-0.08,
0.443,0.71,0.56,-0.51,0.33,0.29,-0.09,
0.444,0.69,0.52,-0.45,0.33,0.29,-0.09,
0.444,0.69,0.52,-0.45,0.32,0.25,-0.11,
0.448,0.69,0.52,-0.45,0.32,0.20,-0.13,
0.449,0.65,0.51,-0.38,0.32,0.20,-0.13,
0.451,0.63,0.49,-0.23,0.32,0.20,-0.13,
0.452,0.63,0.49,-0.23,0.31,0.14,-0.14,
0.456,0.63,0.49,-0.23,0.31,0.09,-0.16,
0.457,0.60,0.43,-0.11,0.31,0.09,-0.16,
0.461,0.60,0.43,-0.11,0.32,0.03,-0.16,
0.462,0.57,0.42,0.02,0.32,0.03,-0.16,
0.466,0.57,0.42,0.02,0.32,-0.01,-0.17,
0.466,0.56,0.37,0.15,0.32,-0.01,-0.17,
0.471,0.56,0.37,0.15,0.33,-0.05,-0.17,
0.472,0.51,0.28,0.36,0.33,-0.05,-0.17,
0.485,0.47,0.18,0.52,0.33,-0.05,-0.17,
0.486,0.47,0.18,0.52,0.33,-0.08,-0.17,
0.486,0.47,0.18,0.52,0.33,-0.10,-0.17,
0.486,0.49,0.05,0.66,0.33,-0.10,-0.17,
0.487,0.49,0.05,0.66,0.33,-0.11,-0.16,
0.487,0.46,-0.07,0.84,0.33,-0.11,-0.16,
0.49,0.46,-0.20,0.98,0.33,-0.11,-0.16,
0.491,0.46,-0.20,0.98,0.33,-0.11,-0.15,
0.495,0.46,-0.20,0.98,0.33,-0.10,-0.13,
0.496,0.51,-0.33,1.02,0.33,-0.10,-0.13,
0.5,0.51,-0.33,1.02,0.33,-0.07,-0.10,
0.5,0.52,-0.39,0.92,0.33,-0.07,-0.10,
0.505,0.52,-0.39,0.92,0.32,-0.02,-0.06,
0.505,0.58,-0.45,0.84,0.32,-0.02,-0.06,
0.526,0.58,-0.45,0.84,0.31,0.02,-0.03,
0.527,0.65,-0.45,0.76,0.31,0.02,-0.03,
0.527,0.76,-0.43,0.67,0.31,0.02,-0.03,
0.528,0.76,-0.43,0.67,0.30,0.06,0.00,
0.528,0.76,-0.43,0.67,0.29,0.08,0.02,
0.528,0.88,-0.41,0.61,0.29,0.08,0.02,
0.529,0.88,-0.41,0.61,0.28,0.09,0.03,
0.529,1.01,-0.38,0.61,0.28,0.09,0.03,
0.529,1.01,-0.38,0.61,0.27,0.08,0.04,
0.529,1.10,-0.40,0.63,0.27,0.08,0.04,
0.534,1.10,-0.40,0.63,0.27,0.06,0.04,
0.535,1.21,-0.37,0.65,0.27,0.06,0.04,
0.539,1.21,-0.37,0.65,0.28,0.03,0.02,
0.54,1.34,-0.33,0.63,0.28,0.03,0.02,
0.543,1.34,-0.33,0.63,0.29,-0.01,0.01,
0.544,1.35,-0.28,0.61,0.29,-0.01,0.01,
0.549,1.29,-0.18,0.53,0.29,-0.01,0.01,
0.549,1.29,-0.18,0.53,0.30,-0.06,-0.00,
0.554,1.11,0.02,0.43,0.30,-0.06,-0.00,
0.554,1.11,0.02,0.43,0.32,-0.11,-0.02,
0.558,1.11,0.02,0.43,0.34,-0.16,-0.03,
0.558,0.88,0.28,0.26,0.34,-0.16,-0.03,
0.564,0.88,0.28,0.26,0.35,-0.23,-0.04,
0.565,0.72,0.53,0.03,0.35,-0.23,-0.04,
0.568,0.72,0.53,0.03,0.34,-0.32,-0.04,
0.569,0.76,0.76,-0.19,0.34,-0.32,-0.04,
0.598,0.76,0.76,-0.19,0.31,-0.41,-0.04,
0.598,1.06,0.93,-0.27,0.31,-0.41,-0.04,
0.598,1.48,1.05,-0.25,0.31,-0.41,-0.04,
0.599,1.48,1.05,-0.25,0.26,-0.49,-0.06,
0.599,1.48,1.05,-0.25,0.19,-0.53,-0.10,
0.6,2.06,1.08,-0.17,0.19,-0.53,-0.10,
0.6,2.47,1.14,-0.09,0.19,-0.53,-0.10,
0.601,2.47,1.14,-0.09,0.12,-0.53,-0.16,
0.601,2.47,1.14,-0.09,0.03,-0.50,-0.25,
0.601,2.62,1.15,0.03,0.03,-0.50,-0.25,
0.602,2.59,1.19,0.16,0.03,-0.50,-0.25,
0.602,2.59,1.19,0.16,-0.06,-0.47,-0.35,
0.603,2.59,1.19,0.16,-0.16,-0.45,-0.46,
0.603,2.36,1.16,0.32,-0.16,-0.45,-0.46,
0.608,2.36,1.16,0.32,-0.27,-0.42,-0.56,
0.608,2.25,1.12,0.36,-0.27,-0.42,-0.56,
0.618,2.25,1.12,0.36,-0.39,-0.39,-0.65,
0.619,2.24,0.91,0.38,-0.39,-0.39,-0.65,
0.619,2.19,0.65,0.48,-0.39,-0.39,-0.65,
0.619,2.19,0.65,0.48,-0.52,-0.33,-0.73,
0.622,2.19,0.65,0.48,-0.66,-0.28,-0.80,
0.622,2.21,0.21,0.70,-0.66,-0.28,-0.80,
0.627,2.18,-0.27,1.11,-0.66,-0.28,-0.80,
0.628,2.18,-0.27,1.11,-0.81,-0.22,-0.87,
0.631,2.10,-0.75,1.53,-0.81,-0.22,-0.87,
0.632,2.10,-0.75,1.53,-0.94,-0.14,-0.93,
0.636,1.95,-1.20,2.19,-0.94,-0.14,-0.93,
0.637,1.95,-1.20,2.19,-1.05,-0.05,-0.97,
0.641,1.64,-1.66,2.85,-1.05,-0.05,-0.97,
0.642,1.64,-1.66,2.85,-1.12,0.05,-0.99,
0.664,1.33,-2.10,3.38,-1.12,0.05,-0.99,
0.665,1.33,-2.10,3.38,-1.15,0.14,-0.98,
0.666,1.33,-2.10,3.38,-1.13,0.22,-0.96,
0.666,1.03,-2.38,3.79,-1.13,0.22,-0.96,
0.666,0.81,-2.61,4.11,-1.13,0.22,-0.96,
0.667,0.81,-2.61,4.11,-1.07,0.29,-0.92,
0.667,0.65,-2.75,4.29,-1.07,0.29,-0.92,
0.667,0.65,-2.75,4.29,-0.98,0.33,-0.88,
0.668,0.55,-2.80,4.41,-0.98,0.33,-0.88,
0.668,0.55,-2.80,4.41,-0.86,0.37,-0.82,
0.671,0.52,-2.78,4.38,-0.86,0.37,-0.82,
0.671,0.52,-2.78,4.38,-0.71,0.38,-0.76,
0.676,0.51,-2.79,4.10,-0.71,0.38,-0.76,
0.676,0.51,-2.79,4.10,-0.55,0.37,-0.71,
0.681,0.49,-2.76,3.66,-0.55,0.37,-0.71,
0.681,0.49,-2.76,3.66,-0.39,0.34,-0.66,
0.686,0.49,-2.76,3.66,-0.24,0.30,-0.61,
0.686,0.41,-2.70,3.09,-0.24,0.30,-0.61,
0.69,0.41,-2.70,3.09,-0.11,0.25,-0.57,
0.691,0.38,-2.59,2.64,-0.11,0.25,-0.57,
0.702,0.38,-2.59,2.64,0.00,0.20,-0.52,
0.703,0.39,-2.48,2.27,0.00,0.20,-0.52,
0.703,0.40,-2.38,1.97,0.00,0.20,-0.52,
0.704,0.40,-2.38,1.97,0.10,0.16,-0.47,
0.705,0.43,-2.29,1.66,0.10,0.16,-0.47,
0.705,0.43,-2.29,1.66,0.20,0.12,-0.43,
0.711,0.38,-2.21,1.31,0.20,0.12,-0.43,
0.712,0.38,-2.21,1.31,0.28,0.10,-0.39,
0.715,0.38,-2.21,1.31,0.36,0.09,-0.34,
0.715,0.25,-2.18,0.96,0.36,0.09,-0.34,
0.719,0.10,-2.14,0.62,0.36,0.09,-0.34,
0.719,0.10,-2.14,0.62,0.43,0.09,-0.30,
0.724,0.02,-2.05,0.26,0.43,0.09,-0.30,
0.725,0.02,-2.05,0.26,0.50,0.10,-0.24,
0.746,0.02,-2.05,0.26,0.56,0.10,-0.19,
0.746,-0.04,-1.89,-0.12,0.56,0.10,-0.19,
0.747,-0.04,-1.89,-0.12,0.62,0.10,-0.14,
0.747,-0.07,-1.74,-0.51,0.62,0.10,-0.14,
0.748,-0.07,-1.74,-0.51,0.67,0.09,-0.10,
0.748,-0.02,-1.56,-0.88,0.67,0.09,-0.10,
0.748,-0.02,-1.56,-0.88,0.71,0.08,-0.06,
0.749,0.08,-1.33,-1.26,0.71,0.08,-0.06,
0.749,0.20,-1.14,-1.60,0.71,0.08,-0.06,
0.75,0.20,-1.14,-1.60,0.74,0.07,-0.03,
0.754,0.28,-0.96,-1.89,0.74,0.07,-0.03,
0.754,0.28,-0.96,-1.89,0.77,0.06,-0.01,
0.758,0.26,-0.84,-2.13,0.77,0.06,-0.01,
0.759,0.26,-0.84,-2.13,0.78,0.05,0.00,
0.763,0.36,-0.72,-2.35,0.78,0.05,0.00,
0.764,0.36,-0.72,-2.35,0.78,0.03,0.02,
0.768,0.48,-0.63,-2.55,0.78,0.03,0.02,
0.769,0.48,-0.63,-2.55,0.78,-0.01,0.02,
0.773,0.59,-0.47,-2.70,0.78,-0.01,0.02,
0.774,0.59,-0.47,-2.70,0.76,-0.05,0.02,
0.779,0.59,-0.47,-2.70,0.74,-0.10,0.01,
0.779,0.68,-0.34,-2.84,0.74,-0.10,0.01,
0.784,0.71,-0.26,-2.95,0.74,-0.10,0.01,
0.784,0.71,-0.26,-2.95,0.71,-0.14,-0.00,
0.788,0.71,-0.26,-2.95,0.68,-0.19,-0.03,
0.789,0.73,-0.16,-2.95,0.68,-0.19,-0.03,
0.794,0.86,-0.03,-2.96,0.68,-0.19,-0.03,
0.795,0.86,-0.03,-2.96,0.65,-0.26,-0.06,
0.797,0.86,-0.03,-2.96,0.61,-0.32,-0.10,
0.798,0.96,0.04,-2.85,0.61,-0.32,-0.10,
0.803,1.04,0.13,-2.71,0.61,-0.32,-0.10,
0.804,1.04,0.13,-2.71,0.58,-0.39,-0.16,
0.807,1.04,0.13,-2.71,0.55,-0.44,-0.22,
0.808,1.04,0.12,-2.52,0.55,-0.44,-0.22,
0.813,0.92,0.08,-2.41,0.55,-0.44,-0.22,
0.813,0.92,0.08,-2.41,0.51,-0.47,-0.29,
0.847,0.92,0.08,-2.41,0.48,-0.48,-0.35,
0.847,0.73,0.02,-2.32,0.48,-0.48,-0.35,
0.848,0.45,-0.04,-2.25,0.48,-0.48,-0.35,
0.848,0.45,-0.04,-2.25,0.44,-0.46,-0.40,
0.848,0.21,-0.06,-2.25,0.44,-0.46,-0.40,
0.849,0.21,-0.06,-2.25,0.40,-0.44,-0.43,
0.849,0.06,-0.04,-2.34,0.40,-0.44,-0.43,
0.849,0.06,-0.04,-2.34,0.36,-0.40,-0.45,
0.85,0.06,-0.04,-2.34,0.31,-0.36,-0.46,
0.85,-0.09,-0.02,-2.43,0.31,-0.36,-0.46,
0.851,-0.09,-0.02,-2.43,0.25,-0.30,-0.47,
0.851,-0.17,-0.03,-2.57,0.25,-0.30,-0.47,
0.852,-0.17,-0.03,-2.57,0.18,-0.24,-0.47,
0.852,-0.20,-0.06,-2.52,0.18,-0.24,-0.47,
0.852,-0.20,-0.06,-2.52,0.11,-0.18,-0.47,
0.853,-0.16,-0.07,-2.32,0.11,-0.18,-0.47,
0.861,-0.16,-0.07,-2.32,0.06,-0.15,-0.48,
0.862,0.02,-0.07,-1.91,0.06,-0.15,-0.48,
0.862,0.02,-0.07,-1.91,0.02,-0.12,-0.50,
0.862,0.19,-0.05,-1.42,0.02,-0.12,-0.50,
0.869,0.19,-0.05,-1.42,0.01,-0.10,-0.53,
0.869,0.20,-0.03,-1.00,0.01,-0.10,-0.53,
0.87,0.20,-0.03,-1.00,0.02,-0.08,-0.56,
0.871,0.20,-0.02,-0.68,0.02,-0.08,-0.56,
0.875,0.20,-0.02,-0.68,0.05,-0.06,-0.58,
0.876,0.19,0.01,-0.51,0.05,-0.06,-0.58,
0.898,0.19,0.01,-0.51,0.07,-0.03,-0.60,
0.899,0.22,0.08,-0.43,0.07,-0.03,-0.60,
0.899,0.22,0.08,-0.43,0.10,-0.00,-0.62,
0.899,0.31,0.09,-0.47,0.10,-0.00,-0.62,
0.9,0.31,0.09,-0.47,0.11,0.05,-0.64,
0.9,0.41,0.10,-0.58,0.11,0.05,-0.64,
0.9,0.41,0.10,-0.58,0.11,0.10,-0.65,
0.901,0.36,0.11,-0.88,0.11,0.10,-0.65,
0.901,0.21,0.09,-1.20,0.11,0.10,-0.65,
0.901,0.21,0.09,-1.20,0.09,0.17,-0.66,
0.905,0.11,0.19,-1.39,0.09,0.17,-0.66,
0.905,0.11,0.19,-1.39,0.06,0.22,-0.67,
0.911,0.04,0.32,-1.49,0.06,0.22,-0.67,
0.911,0.04,0.32,-1.49,0.01,0.27,-0.66,
0.915,0.03,0.41,-1.59,0.01,0.27,-0.66,
0.915,0.03,0.41,-1.59,-0.04,0.32,-0.65,
0.919,-0.05,0.45,-1.66,-0.04,0.32,-0.65,
0.92,-0.05,0.45,-1.66,-0.10,0.38,-0.65,
0.924,-0.05,0.45,-1.66,-0.15,0.42,-0.64,
0.924,-0.15,0.44,-1.63,-0.15,0.42,-0.64,
0.938,-0.15,0.44,-1.63,-0.20,0.45,-0.64,
0.94,-0.26,0.39,-1.64,-0.20,0.45,-0.64,
0.941,-0.26,0.39,-1.64,-0.24,0.47,-0.62,
0.941,-0.40,0.37,-1.58,-0.24,0.47,-0.62,
0.942,-0.40,0.37,-1.58,-0.27,0.49,-0.61,
0.943,-0.55,0.34,-1.42,-0.27,0.49,-0.61,
0.98,-0.55,0.34,-1.42,-0.29,0.49,-0.59,
0.981,-0.71,0.35,-1.25,-0.29,0.49,-0.59,
0.982,-0.78,0.30,-1.06,-0.29,0.49,-0.59,
0.982,-0.78,0.30,-1.06,-0.29,0.48,-0.56,
0.983,-0.89,0.30,-0.89,-0.29,0.48,-0.56,
0.984,-0.89,0.30,-0.89,-0.28,0.45,-0.53,
0.984,-0.87,0.29,-0.73,-0.28,0.45,-0.53,
0.985,-0.87,0.29,-0.73,-0.26,0.41,-0.50,
0.985,-0.87,0.29,-0.73,-0.23,0.36,-0.47,
0.986,-0.83,0.26,-0.53,-0.23,0.36,-0.47,
0.986,-0.82,0.22,-0.29,-0.23,0.36,-0.47,
0.986,-0.82,0.22,-0.29,-0.19,0.31,-0.44,
0.987,-0.74,0.21,-0.13,-0.19,0.31,-0.44,
0.988,-0.74,0.21,-0.13,-0.13,0.27,-0.41,
0.988,-0.62,0.30,-0.01,-0.13,0.27,-0.41,
0.989,-0.62,0.30,-0.01,-0.06,0.22,-0.38,
0.989,-0.62,0.30,-0.01,0.01,0.18,-0.35,
0.99,-0.58,0.32,0.05,0.01,0.18,-0.35,
0.99,-0.60,0.37,-0.03,0.01,0.18,-0.35,
0.991,-0.60,0.37,-0.03,0.09,0.13,-0.33,
0.992,-0.60,0.37,-0.03,0.17,0.10,-0.31,
0.993,-0.62,0.39,-0.17,0.17,0.10,-0.31,
0.998,-0.65,0.47,-0.28,0.17,0.10,-0.31,
0.999,-0.65,0.47,-0.28,0.24,0.07,-0.29,
1.003,-0.65,0.54,-0.45,0.24,0.07,-0.29,
1.003,-0.65,0.54,-0.45,0.30,0.05,-0.26,
1.007,-0.72,0.56,-0.69,0.30,0.05,-0.26,
1.008,-0.72,0.56,-0.69,0.36,0.02,-0.24,
1.012,-0.79,0.62,-0.92,0.36,0.02,-0.24,
1.013,-0.79,0.62,-0.92,0.40,0.01,-0.21,
1.017,-0.79,0.62,-0.92,0.42,-0.01,-0.17,
1.018,-0.79,0.70,-0.99,0.42,-0.01,-0.17,
1.022,-0.79,0.70,-0.99,0.43,-0.02,-0.14,
1.023,-0.66,0.77,-0.89,0.43,-0.02,-0.14,
1.027,-0.66,0.77,-0.89,0.43,-0.03,-0.11,
1.027,-0.43,0.89,-0.65,0.43,-0.03,-0.11,
1.04,-0.18,1.01,-0.37,0.43,-0.03,-0.11,
1.041,-0.18,1.01,-0.37,0.44,-0.03,-0.10,
1.042,0.11,1.06,-0.21,0.44,-0.03,-0.10,
1.043,0.11,1.06,-0.21,0.46,-0.01,-0.09,
1.043,0.23,1.07,-0.18,0.46,-0.01,-0.09,
1.044,0.23,1.07,-0.18,0.48,0.02,-0.09,
1.081,0.21,0.99,-0.21,0.48,0.02,-0.09,
1.082,0.21,0.99,-0.21,0.50,0.06,-0.10,
1.083,0.27,0.96,-0.23,0.50,0.06,-0.10,
1.083,0.27,0.96,-0.23,0.52,0.07,-0.10,
1.084,0.27,0.96,-0.23,0.52,0.10,-0.10,
1.084,0.35,0.94,-0.27,0.52,0.10,-0.10,
1.125,0.34,0.95,-0.26,0.52,0.10,-0.10,
1.126,0.34,0.95,-0.26,0.51,0.12,-0.10,
1.126,0.34,0.95,-0.26,0.50,0.16,-0.09,
1.127,0.28,0.93,-0.27,0.50,0.16,-0.09,
1.128,0.28,0.93,-0.27,0.49,0.18,-0.08,
1.128,0.26,0.93,-0.23,0.49,0.18,-0.08,
1.128,0.26,0.93,-0.23,0.47,0.19,-0.05,
1.129,0.26,0.98,-0.20,0.47,0.19,-0.05,
1.129,0.36,1.01,-0.09,0.47,0.19,-0.05,
1.13,0.36,1.01,-0.09,0.46,0.20,-0.04,
1.13,0.36,1.01,-0.09,0.44,0.20,-0.03,
1.131,0.41,1.03,0.07,0.44,0.20,-0.03,
1.131,0.42,1.04,0.21,0.44,0.20,-0.03,
1.131,0.42,1.04,0.21,0.44,0.20,-0.02,
1.132,0.42,1.04,0.21,0.44,0.21,-0.02,
1.132,0.47,1.02,0.29,0.44,0.21,-0.02,
1.132,0.49,1.05,0.31,0.44,0.21,-0.02,
1.133,0.49,1.05,0.31,0.44,0.21,-0.02,
1.133,0.49,1.05,0.31,0.45,0.24,-0.02,
1.133,0.37,1.07,0.28,0.45,0.24,-0.02,
1.134,0.37,1.07,0.28,0.46,0.29,-0.03,
1.134,0.19,1.26,0.16,0.46,0.29,-0.03,
1.135,-0.07,1.42,-0.07,0.46,0.29,-0.03,
1.135,-0.07,1.42,-0.07,0.47,0.34,-0.03,
1.136,-0.07,1.42,-0.07,0.47,0.39,-0.04,
1.136,-0.43,1.62,-0.43,0.47,0.39,-0.04,
1.136,-0.80,1.83,-0.91,0.47,0.39,-0.04,
1.137,-0.80,1.83,-0.91,0.47,0.45,-0.03,
1.137,-0.80,1.83,-0.91,0.45,0.48,-0.02,
1.138,-1.12,1.97,-1.56,0.45,0.48,-0.02,
1.138,-1.32,1.99,-2.13,0.45,0.48,-0.02,
1.138,-1.32,1.99,-2.13,0.41,0.48,-0.01,
1.139,-1.32,1.99,-2.13,0.36,0.45,0.01,
1.139,-1.35,2.03,-2.65,0.36,0.45,0.01,
1.153,-1.35,2.03,-2.65,0.29,0.38,0.02,
1.153,-1.22,2.04,-3.06,0.29,0.38,0.02,
1.154,-0.89,2.13,-3.33,0.29,0.38,0.02,
1.154,-0.89,2.13,-3.33,0.21,0.24,0.03,
1.155,-0.89,2.13,-3.33,0.11,0.05,0.01,
1.155,-0.47,2.15,-3.46,0.11,0.05,0.01,
1.159,-0.47,2.15,-3.46,-0.00,-0.19,-0.02,
1.159,0.11,2.21,-3.35,-0.00,-0.19,-0.02,
1.188,0.11,2.21,-3.35,-0.12,-0.45,-0.09,
1.189,0.76,2.15,-2.96,-0.12,-0.45,-0.09,
1.189,0.76,2.15,-2.96,-0.22,-0.71,-0.18,
1.19,1.34,1.93,-2.43,-0.22,-0.71,-0.18,
1.19,1.34,1.93,-2.43,-0.31,-0.94,-0.28,
1.19,1.73,1.58,-1.98,-0.31,-0.94,-0.28,
1.191,1.73,1.58,-1.98,-0.39,-1.15,-0.40,
1.191,1.97,1.18,-1.46,-0.39,-1.15,-0.40,
1.192,1.97,1.18,-1.46,-0.45,-1.30,-0.52,
1.192,1.93,0.28,-1.40,-0.45,-1.30,-0.52,
1.193,2.26,-0.18,-1.25,-0.45,-1.30,-0.52,
1.193,2.26,-0.18,-1.25,-0.53,-1.32,-0.65,
1.194,2.26,-0.18,-1.25,-0.60,-1.27,-0.78,
1.194,2.17,-0.64,-0.90,-0.60,-1.27,-0.78,
1.2,2.17,-0.64,-0.90,-0.63,-1.27,-0.87,
1.201,1.83,-0.96,-0.65,-0.63,-1.27,-0.87,
1.202,1.83,-0.96,-0.65,-0.61,-1.34,-0.90,
1.203,1.28,-1.24,-0.59,-0.61,-1.34,-0.90,
1.207,1.28,-1.24,-0.59,-0.55,-1.43,-0.88,
1.208,0.65,-1.52,-0.82,-0.55,-1.43,-0.88,
1.212,0.65,-1.52,-0.82,-0.48,-1.53,-0.84,
1.213,-0.11,-1.91,-1.49,-0.48,-1.53,-0.84,
1.217,-0.11,-1.91,-1.49,-0.43,-1.57,-0.78,
1.218,-0.75,-2.11,-2.30,-0.43,-1.57,-0.78,
1.222,-0.75,-2.11,-2.30,-0.41,-1.58,-0.71,
1.222,-1.34,-2.23,-2.92,-0.41,-1.58,-0.71,
1.226,-1.78,-2.39,-3.46,-0.41,-1.58,-0.71,
1.227,-1.78,-2.39,-3.46,-0.39,-1.57,-0.61,
1.232,-1.78,-2.39,-3.46,-0.36,-1.57,-0.49,
1.232,-2.05,-2.49,-3.95,-0.36,-1.57,-0.49,
1.236,-2.05,-2.49,-3.95,-0.31,-1.59,-0.33,
1.237,-2.13,-2.53,-4.49,-0.31,-1.59,-0.33,
1.241,-2.03,-2.54,-5.13,-0.31,-1.59,-0.33,
1.242,-2.03,-2.54,-5.13,-0.24,-1.65,-0.16,
1.255,-1.98,-2.53,-5.86,-0.24,-1.65,-0.16,
1.256,-1.98,-2.53,-5.86,-0.18,-1.75,-0.01,
1.257,-1.98,-2.53,-5.86,-0.11,-1.90,0.12,
1.258,-1.91,-2.60,-6.82,-0.11,-1.90,0.12,
1.259,-1.80,-2.75,-7.86,-0.11,-1.90,0.12,
1.259,-1.80,-2.75,-7.86,-0.06,-2.11,0.23,
1.261,-1.80,-2.75,-7.86,-0.02,-2.39,0.32,
1.262,-1.75,-2.98,-8.93,-0.02,-2.39,0.32,
1.299,-1.85,-3.27,-9.89,-0.02,-2.39,0.32,
1.3,-1.85,-3.27,-9.89,0.01,-2.75,0.40,
1.301,-1.85,-3.27,-9.89,0.03,-3.15,0.48,
1.301,-2.03,-3.57,-10.64,0.03,-3.15,0.48,
1.302,-2.03,-3.57,-10.64,0.03,-3.58,0.57,
1.302,-2.20,-3.69,-11.25,0.03,-3.58,0.57,
1.303,-2.20,-3.69,-11.25,0.02,-4.03,0.65,
1.303,-2.33,-3.91,-11.63,0.02,-4.03,0.65,
1.304,-2.33,-3.91,-11.63,0.02,-4.52,0.74,
1.305,-2.30,-4.12,-11.47,0.02,-4.52,0.74,
1.305,-2.30,-4.12,-11.47,0.06,-5.06,0.84,
1.306,-1.13,-4.37,-11.96,0.06,-5.06,0.84,
1.306,-1.13,-4.37,-11.96,0.07,-5.60,0.88,
1.307,0.35,-4.69,-13.07,0.07,-5.60,0.88,
1.308,0.35,-4.69,-13.07,0.02,-6.12,0.84,
1.308,-0.33,-4.95,-11.43,0.02,-6.12,0.84,
1.349,-0.33,-4.95,-11.43,0.02,-6.51,0.80,
1.349,-1.01,-5.20,-10.57,0.02,-6.51,0.80,
1.35,-1.01,-5.20,-10.57,0.08,-6.89,0.80,
1.35,-2.16,-5.43,-9.22,0.08,-6.89,0.80,
1.351,-2.16,-5.43,-9.22,0.18,-7.24,0.85,
1.351,-1.98,-5.67,-9.19,0.18,-7.24,0.85,
1.352,-1.16,-6.18,-9.83,0.18,-7.24,0.85,
1.352,-1.16,-6.18,-9.83,0.28,-7.57,0.93,
1.352,-0.66,-6.84,-9.72,0.28,-7.57,0.93,
1.353,-0.66,-6.84,-9.72,0.34,-7.85,1.00,
1.353,-0.66,-6.84,-9.72,0.38,-8.04,1.07,
1.354,-1.13,-7.54,-8.91,0.38,-8.04,1.07,
1.354,-1.13,-7.54,-8.91,0.42,-8.17,1.16,
1.355,-1.41,-8.05,-8.45,0.42,-8.17,1.16,
1.355,-1.41,-8.05,-8.45,0.46,-8.27,1.27,
1.356,-1.39,-8.40,-8.27,0.46,-8.27,1.27,
1.356,-1.39,-8.40,-8.27,0.49,-8.34,1.39,
1.357,-1.72,-8.57,-7.48,0.49,-8.34,1.39,
1.357,-1.72,-8.57,-7.48,0.50,-8.29,1.53,
1.358,-2.01,-8.60,-6.96,0.50,-8.29,1.53,
1.358,-2.17,-8.66,-6.52,0.50,-8.29,1.53,
1.358,-2.17,-8.66,-6.52,0.51,-8.14,1.69,
1.359,-2.12,-8.85,-6.24,0.51,-8.14,1.69,
1.359,-2.12,-8.85,-6.24,0.50,-7.91,1.87,
1.364,-2.12,-8.85,-6.24,0.47,-7.62,2.04,
1.364,-1.95,-9.09,-5.96,0.47,-7.62,2.04,
1.369,-1.77,-9.28,-5.67,0.47,-7.62,2.04,
1.369,-1.77,-9.28,-5.67,0.43,-7.31,2.21,
1.373,-1.77,-9.28,-5.67,0.38,-6.99,2.35,
1.374,-1.56,-9.37,-5.28,0.38,-6.99,2.35,
1.378,-1.42,-9.35,-5.07,0.38,-6.99,2.35,
1.378,-1.42,-9.35,-5.07,0.33,-6.65,2.48,
1.386,-1.42,-9.35,-5.07,0.27,-6.31,2.60,
1.387,-1.42,-9.37,-4.93,0.27,-6.31,2.60,
1.389,-1.51,-9.47,-4.98,0.27,-6.31,2.60,
1.389,-1.51,-9.47,-4.98,0.18,-5.95,2.71,
1.392,-1.57,-9.69,-5.08,0.18,-5.95,2.71,
1.393,-1.57,-9.69,-5.08,0.07,-5.60,2.81,
1.426,-1.57,-9.69,-5.08,-0.06,-5.25,2.93,
1.427,-1.59,-10.02,-5.13,-0.06,-5.25,2.93,
1.428,-1.59,-10.02,-5.13,-0.21,-4.92,3.05,
1.428,-1.57,-10.41,-5.11,-0.21,-4.92,3.05,
1.429,-1.57,-10.41,-5.11,-0.36,-4.59,3.19,
1.43,-1.48,-10.79,-5.11,-0.36,-4.59,3.19,
1.43,-1.36,-11.09,-5.01,-0.36,-4.59,3.19,
1.431,-1.36,-11.09,-5.01,-0.52,-4.28,3.33,
1.432,-1.36,-11.09,-5.01,-0.67,-3.99,3.48,
1.432,-1.14,-11.38,-4.89,-0.67,-3.99,3.48,
1.433,-0.86,-11.65,-4.76,-0.67,-3.99,3.48,
1.433,-0.86,-11.65,-4.76,-0.82,-3.73,3.62,
1.434,-0.51,-11.83,-4.66,-0.82,-3.73,3.62,
1.434,-0.51,-11.83,-4.66,-0.95,-3.52,3.76,
1.435,-0.51,-11.83,-4.66,-1.07,-3.34,3.88,
1.435,0.01,-12.05,-4.60,-1.07,-3.34,3.88,
1.438,0.01,-12.05,-4.60,-1.17,-3.21,3.97,
1.439,0.49,-12.31,-4.46,-1.17,-3.21,3.97,
1.442,0.88,-12.67,-4.37,-1.17,-3.21,3.97,
1.442,0.88,-12.67,-4.37,-1.26,-3.11,4.06,
1.447,1.24,-13.10,-4.26,-1.26,-3.11,4.06,
1.448,1.24,-13.10,-4.26,-1.34,-3.04,4.12,
1.451,1.66,-13.50,-4.18,-1.34,-3.04,4.12,
1.452,1.66,-13.50,-4.18,-1.43,-2.99,4.19,
1.456,2.21,-13.91,-4.05,-1.43,-2.99,4.19,
1.457,2.21,-13.91,-4.05,-1.50,-2.94,4.26,
1.461,2.88,-14.27,-3.89,-1.50,-2.94,4.26,
1.461,2.88,-14.27,-3.89,-1.57,-2.91,4.32,
1.47,2.88,-14.27,-3.89,-1.63,-2.91,4.38,
1.471,3.76,-14.57,-3.66,-1.63,-2.91,4.38,
1.472,4.84,-14.90,-3.71,-1.63,-2.91,4.38,
1.472,4.84,-14.90,-3.71,-1.67,-2.92,4.43,
1.475,5.55,-15.13,-3.50,-1.67,-2.92,4.43,
1.476,5.55,-15.13,-3.50,-1.72,-2.96,4.46,
1.51,5.64,-15.24,-2.60,-1.72,-2.96,4.46,
1.511,5.64,-15.24,-2.60,-1.76,-3.00,4.47,
1.512,5.95,-15.36,-2.11,-1.76,-3.00,4.47,
1.512,5.95,-15.36,-2.11,-1.78,-3.01,4.50,
1.513,6.66,-15.51,-2.06,-1.78,-3.01,4.50,
1.514,6.66,-15.51,-2.06,-1.78,-3.03,4.53,
1.514,6.66,-15.51,-2.06,-1.81,-3.07,4.55,
1.515,7.34,-15.72,-1.89,-1.81,-3.07,4.55,
1.515,7.80,-15.96,-1.47,-1.81,-3.07,4.55,
1.516,7.80,-15.96,-1.47,-1.84,-3.12,4.56,
1.516,8.29,-16.21,-0.92,-1.84,-3.12,4.56,
1.517,8.29,-16.21,-0.92,-1.89,-3.15,4.57,
1.517,8.85,-16.48,-0.47,-1.89,-3.15,4.57,
1.518,8.85,-16.48,-0.47,-1.94,-3.18,4.57,
1.518,9.36,-16.76,0.04,-1.94,-3.18,4.57,
1.519,9.36,-16.76,0.04,-1.99,-3.19,4.57,
1.519,9.81,-16.98,0.59,-1.99,-3.19,4.57,
1.52,9.81,-16.98,0.59,-2.04,-3.19,4.58,
1.525,10.19,-17.13,1.12,-2.04,-3.19,4.58,
1.526,10.19,-17.13,1.12,-2.09,-3.17,4.59,
1.539,10.19,-17.13,1.12,-2.13,-3.15,4.61,
1.54,10.47,-17.23,1.78,-2.13,-3.15,4.61,
1.541,10.72,-17.23,2.46,-2.13,-3.15,4.61,
1.542,10.72,-17.23,2.46,-2.15,-3.13,4.65,
1.542,10.99,-17.16,3.07,-2.15,-3.13,4.65,
1.543,10.99,-17.16,3.07,-2.16,-3.10,4.70,
1.544,10.99,-17.16,3.07,-2.15,-3.04,4.75,
1.545,11.30,-17.08,3.67,-2.15,-3.04,4.75,
1.582,11.30,-17.08,3.67,-2.13,-2.96,4.81,
1.583,11.70,-16.88,4.20,-2.13,-2.96,4.81,
1.583,11.70,-16.88,4.20,-2.09,-2.86,4.86,
1.584,12.11,-16.59,4.73,-2.09,-2.86,4.86,
1.585,12.11,-16.59,4.73,-2.05,-2.76,4.91,
1.585,12.48,-16.23,5.17,-2.05,-2.76,4.91,
1.586,12.48,-16.23,5.17,-1.99,-2.66,4.95,
1.586,12.82,-15.78,5.58,-1.99,-2.66,4.95,
1.587,12.82,-15.78,5.58,-1.93,-2.53,4.98,
1.588,13.03,-15.31,5.89,-1.93,-2.53,4.98,
1.588,13.03,-15.31,5.89,-1.87,-2.40,5.00,
1.589,13.24,-14.79,6.16,-1.87,-2.40,5.00,
1.589,13.24,-14.79,6.16,-1.80,-2.24,5.01,
1.59,13.29,-14.28,6.35,-1.80,-2.24,5.01,
1.59,13.29,-14.28,6.35,-1.74,-2.07,5.01,
1.591,13.22,-13.67,6.51,-1.74,-2.07,5.01,
1.591,13.22,-13.67,6.51,-1.68,-1.87,5.01,
1.592,13.12,-13.15,6.55,-1.68,-1.87,5.01,
1.593,13.12,-13.15,6.55,-1.64,-1.66,5.01,
1.593,12.97,-12.71,6.48,-1.64,-1.66,5.01,
1.598,12.88,-12.27,6.31,-1.64,-1.66,5.01,
1.599,12.88,-12.27,6.31,-1.61,-1.42,5.00,
1.603,12.88,-12.27,6.31,-1.62,-1.18,4.99,
1.603,12.80,-11.86,6.06,-1.62,-1.18,4.99,
1.607,12.80,-11.86,6.06,-1.65,-0.95,4.97,
1.608,12.77,-11.50,5.86,-1.65,-0.95,4.97,
1.619,12.77,-11.50,5.86,-1.71,-0.73,4.95,
1.62,12.82,-11.07,5.78,-1.71,-0.73,4.95,
1.62,12.82,-11.07,5.78,-1.76,-0.53,4.93,
1.621,12.94,-10.54,5.86,-1.76,-0.53,4.93,
1.621,12.94,-10.54,5.86,-1.80,-0.37,4.89,
1.622,13.02,-9.82,6.04,-1.80,-0.37,4.89,
1.627,13.02,-9.82,6.04,-1.80,-0.23,4.84,
1.627,12.99,-9.02,6.23,-1.80,-0.23,4.84,
1.659,12.99,-9.02,6.23,-1.78,-0.09,4.77,
1.66,12.84,-8.23,6.28,-1.78,-0.09,4.77,
1.661,12.64,-7.56,6.24,-1.78,-0.09,4.77,
1.661,12.64,-7.56,6.24,-1.74,0.04,4.69,
1.662,12.51,-7.01,6.10,-1.74,0.04,4.69,
1.662,12.51,-7.01,6.10,-1.68,0.16,4.60,
1.663,12.51,-7.01,6.10,-1.60,0.26,4.50,
1.663,12.42,-6.61,5.88,-1.60,0.26,4.50,
1.664,12.44,-6.37,5.61,-1.60,0.26,4.50,
1.664,12.44,-6.37,5.61,-1.53,0.35,4.39,
1.665,12.44,-6.37,5.61,-1.45,0.39,4.29,
1.665,12.61,-6.19,5.26,-1.45,0.39,4.29,
1.665,12.61,-6.19,5.26,-1.39,0.40,4.19,
1.666,12.83,-6.03,4.87,-1.39,0.40,4.19,
1.666,13.06,-5.85,4.43,-1.39,0.40,4.19,
1.667,13.06,-5.85,4.43,-1.34,0.36,4.08,
1.671,13.17,-5.63,4.15,-1.34,0.36,4.08,
1.672,13.17,-5.63,4.15,-1.30,0.29,3.97,
1.676,13.17,-5.31,3.85,-1.30,0.29,3.97,
1.676,13.17,-5.31,3.85,-1.29,0.22,3.85,
1.686,13.17,-5.31,3.85,-1.31,0.16,3.74,
1.687,13.02,-4.98,3.68,-1.31,0.16,3.74,
1.688,13.02,-4.98,3.68,-1.35,0.11,3.62,
1.688,12.76,-4.61,3.65,-1.35,0.11,3.62,
1.69,12.76,-4.61,3.65,-1.42,0.07,3.50,
1.69,12.45,-4.22,3.73,-1.42,0.07,3.50,
1.695,12.45,-4.22,3.73,-1.50,0.04,3.39,
1.696,12.13,-3.91,3.87,-1.50,0.04,3.39,
1.713,12.13,-3.91,3.87,-1.60,0.02,3.28,
1.715,11.77,-3.63,4.07,-1.60,0.02,3.28,
1.715,11.77,-3.63,4.07,-1.70,0.01,3.18,
1.716,11.32,-3.29,4.34,-1.70,0.01,3.18,
1.716,10.76,-2.96,4.75,-1.70,0.01,3.18,
1.716,10.76,-2.96,4.75,-1.79,0.01,3.08,
1.717,10.76,-2.96,4.75,-1.88,0.03,3.01,
1.717,10.13,-2.45,5.22,-1.88,0.03,3.01,
1.72,10.13,-2.45,5.22,-1.95,0.08,2.96,
1.72,9.36,-1.85,5.74,-1.95,0.08,2.96,
1.724,9.36,-1.85,5.74,-1.99,0.13,2.92,
1.725,8.50,-1.11,6.23,-1.99,0.13,2.92,
1.729,7.64,-0.31,6.75,-1.99,0.13,2.92,
1.729,7.64,-0.31,6.75,-2.01,0.21,2.91,
1.737,7.64,-0.31,6.75,-2.02,0.32,2.91,
1.738,6.79,0.52,7.21,-2.02,0.32,2.91,
1.739,6.79,0.52,7.21,-1.99,0.43,2.92,
1.74,6.03,1.30,7.59,-1.99,0.43,2.92,
1.744,6.03,1.30,7.59,-1.95,0.56,2.94,
1.744,5.47,2.02,7.87,-1.95,0.56,2.94,
1.765,5.47,2.02,7.87,-1.89,0.68,2.96,
1.765,5.08,2.67,8.12,-1.89,0.68,2.96,
1.766,5.08,2.67,8.12,-1.82,0.80,2.99,
1.766,4.76,3.22,8.28,-1.82,0.80,2.99,
1.766,4.76,3.22,8.28,-1.73,0.91,3.01,
1.767,4.64,3.66,8.30,-1.73,0.91,3.01,
1.767,4.64,3.66,8.30,-1.64,1.01,3.03,
1.767,4.62,4.09,8.25,-1.64,1.01,3.03,
1.768,4.68,4.41,8.12,-1.64,1.01,3.03,
1.769,4.68,4.41,8.12,-1.54,1.11,3.05,
1.773,4.81,4.66,7.92,-1.54,1.11,3.05,
1.774,4.81,4.66,7.92,-1.44,1.20,3.05,
1.778,5.06,4.87,7.70,-1.44,1.20,3.05,
1.778,5.06,4.87,7.70,-1.33,1.28,3.04,
1.783,5.06,4.87,7.70,-1.22,1.34,3.03,
1.784,5.41,5.06,7.43,-1.22,1.34,3.03,
1.788,5.41,5.06,7.43,-1.10,1.39,3.00,
1.788,5.75,5.24,7.17,-1.10,1.39,3.00,
1.817,6.07,5.46,6.91,-1.10,1.39,3.00,
1.818,6.07,5.46,6.91,-0.98,1.41,2.96,
1.818,6.31,5.74,6.66,-0.98,1.41,2.96,
1.819,6.31,5.74,6.66,-0.85,1.40,2.91,
1.819,6.31,5.74,6.66,-0.71,1.38,2.86,
1.819,6.63,6.02,6.41,-0.71,1.38,2.86,
1.82,6.63,6.02,6.41,-0.55,1.33,2.80,
1.82,7.02,6.33,6.09,-0.55,1.33,2.80,
1.82,7.02,6.33,6.09,-0.38,1.27,2.73,
1.821,7.40,6.61,5.68,-0.38,1.27,2.73,
1.821,7.67,6.94,5.24,-0.38,1.27,2.73,
1.822,7.67,6.94,5.24,-0.20,1.20,2.65,
1.822,7.67,6.94,5.24,-0.02,1.12,2.57,
1.822,7.90,7.28,4.74,-0.02,1.12,2.57,
1.83,8.09,7.63,4.26,-0.02,1.12,2.57,
1.831,8.09,7.63,4.26,0.17,1.03,2.49,
1.832,8.21,8.00,3.83,0.17,1.03,2.49,
1.832,8.21,8.00,3.83,0.35,0.94,2.40,
1.837,8.35,8.29,3.34,0.35,0.94,2.40,
1.837,8.35,8.29,3.34,0.51,0.85,2.30,
1.841,8.35,8.29,3.34,0.67,0.75,2.19,
1.842,8.51,8.49,2.90,0.67,0.75,2.19,
1.867,8.51,8.49,2.90,0.81,0.63,2.07,
1.868,8.98,8.49,2.35,0.81,0.63,2.07,
1.868,8.98,8.49,2.35,0.92,0.48,1.95,
1.868,9.06,8.57,1.81,0.92,0.48,1.95,
1.868,9.06,8.57,1.81,0.99,0.31,1.80,
1.869,8.81,8.79,1.51,0.99,0.31,1.80,
1.869,8.81,8.79,1.51,1.03,0.16,1.67,
1.869,8.58,8.93,1.31,1.03,0.16,1.67,
1.869,8.58,8.93,1.31,1.04,0.03,1.52,
1.87,8.44,9.07,1.22,1.04,0.03,1.52,
1.87,8.44,9.07,1.22,1.02,-0.10,1.38,
1.871,8.39,9.12,1.09,1.02,-0.10,1.38,
1.876,8.39,9.12,1.09,0.99,-0.23,1.24,
1.876,8.40,9.13,1.05,0.99,-0.23,1.24,
1.881,8.45,9.04,1.09,0.99,-0.23,1.24,
1.882,8.45,9.04,1.09,0.92,-0.37,1.11,
1.886,8.45,9.04,1.09,0.85,-0.49,0.98,
1.886,8.44,8.94,1.12,0.85,-0.49,0.98,
1.89,8.40,8.75,1.30,0.85,-0.49,0.98,
1.891,8.40,8.75,1.30,0.76,-0.58,0.86,
1.895,8.35,8.56,1.56,0.76,-0.58,0.86,
1.896,8.35,8.56,1.56,0.66,-0.63,0.76,
1.901,8.35,8.56,1.56,0.56,-0.65,0.67,
1.901,8.24,8.38,1.90,0.56,-0.65,0.67,
1.906,8.24,8.38,1.90,0.45,-0.63,0.61,
1.906,8.07,8.22,2.32,0.45,-0.63,0.61,
1.911,8.07,8.22,2.32,0.35,-0.60,0.57,
1.911,8.01,8.16,2.72,0.35,-0.60,0.57,
1.921,8.01,8.16,2.72,0.26,-0.54,0.56,
1.922,8.05,8.19,3.03,0.26,-0.54,0.56,
1.923,8.20,8.27,3.20,0.26,-0.54,0.56,
1.923,8.20,8.27,3.20,0.17,-0.48,0.55,
1.924,8.20,8.27,3.20,0.08,-0.41,0.54,
1.925,8.38,8.34,3.41,0.08,-0.41,0.54,
1.929,8.57,8.42,3.68,0.08,-0.41,0.54,
1.929,8.57,8.42,3.68,-0.02,-0.33,0.53,
1.96,8.57,8.42,3.68,-0.12,-0.24,0.51,
1.961,8.70,8.47,4.00,-0.12,-0.24,0.51,
1.961,8.70,8.47,4.00,-0.21,-0.14,0.48,
1.961,8.86,8.48,4.30,-0.21,-0.14,0.48,
1.962,8.86,8.48,4.30,-0.28,-0.03,0.45,
1.962,9.10,8.56,4.55,-0.28,-0.03,0.45,
1.963,9.43,8.57,4.76,-0.28,-0.03,0.45,
1.963,9.43,8.57,4.76,-0.35,0.09,0.39,
1.963,9.43,8.57,4.76,-0.41,0.21,0.32,
1.964,9.75,8.56,4.92,-0.41,0.21,0.32,
1.964,9.75,8.56,4.92,-0.46,0.33,0.23,
1.965,10.04,8.47,5.08,-0.46,0.33,0.23,
1.965,10.30,8.39,5.21,-0.46,0.33,0.23,
1.966,10.30,8.39,5.21,-0.49,0.45,0.13,
1.975,10.30,8.39,5.21,-0.52,0.56,0.01,
1.975,10.50,8.22,5.34,-0.52,0.56,0.01,
1.976,10.50,8.22,5.34,-0.53,0.68,-0.10,
1.976,10.64,8.09,5.45,-0.53,0.68,-0.10,
1.978,10.76,7.91,5.52,-0.53,0.68,-0.10,
1.979,10.76,7.91,5.52,-0.52,0.78,-0.22,
2.008,10.76,7.91,5.52,-0.50,0.87,-0.34,
2.009,10.79,7.76,5.61,-0.50,0.87,-0.34,
2.009,10.75,7.55,5.67,-0.50,0.87,-0.34,
2.01,10.75,7.55,5.67,-0.46,0.95,-0.45,
2.01,10.75,7.55,5.67,-0.40,1.01,-0.56,
2.01,10.62,7.33,5.77,-0.40,1.01,-0.56,
2.011,10.62,7.33,5.77,-0.32,1.05,-0.67,
2.011,10.39,7.10,5.81,-0.32,1.05,-0.67,
2.012,10.16,6.94,5.85,-0.32,1.05,-0.67,
2.012,10.16,6.94,5.85,-0.22,1.07,-0.75,
2.012,10.03,6.83,5.88,-0.22,1.07,-0.75,
2.013,10.03,6.83,5.88,-0.11,1.07,-0.84,
2.013,10.03,6.83,5.88,0.02,1.04,-0.91,
2.014,9.96,6.78,5.89,0.02,1.04,-0.91,
2.024,9.96,6.78,5.89,0.17,1.01,-0.98,
2.024,9.99,6.72,5.80,0.17,1.01,-0.98,
2.025,10.04,6.62,5.63,0.17,1.01,-0.98,
2.025,10.04,6.62,5.63,0.31,0.96,-1.05,
2.026,10.10,6.46,5.38,0.31,0.96,-1.05,
2.027,10.10,6.46,5.38,0.45,0.92,-1.12,
2.053,10.10,6.46,5.38,0.60,0.88,-1.18,
2.054,10.16,6.25,5.13,0.60,0.88,-1.18,
2.155,10.16,6.25,5.13,0.73,0.83,-1.24,
2.156,10.22,6.14,4.88,0.73,0.83,-1.24,
2.157,10.22,6.14,4.88,0.87,0.78,-1.29,
2.157,10.37,6.04,4.67,0.87,0.78,-1.29,
2.158,10.37,6.04,4.67,1.00,0.73,-1.34,
2.159,10.55,5.99,4.47,1.00,0.73,-1.34,
2.16,10.84,5.92,4.28,1.00,0.73,-1.34,
2.16,10.84,5.92,4.28,1.13,0.69,-1.39,
2.161,10.84,5.92,4.28,1.27,0.63,-1.45,
2.161,11.13,5.79,4.01,1.27,0.63,-1.45,
2.162,11.13,5.79,4.01,1.40,0.57,-1.52,
2.163,11.34,5.64,3.81,1.40,0.57,-1.52,
2.163,11.34,5.64,3.81,1.52,0.50,-1.60,
2.164,11.55,5.44,3.52,1.52,0.50,-1.60,
2.165,11.55,5.44,3.52,1.63,0.42,-1.68,
2.165,11.70,5.19,3.26,1.63,0.42,-1.68,
2.166,11.70,5.19,3.26,1.72,0.33,-1.78,
2.166,11.85,4.93,3.03,1.72,0.33,-1.78,
2.167,11.85,4.93,3.03,1.79,0.23,-1.87,
2.168,11.99,4.58,2.84,1.79,0.23,-1.87,
2.169,12.07,4.20,2.70,1.79,0.23,-1.87,
2.169,12.07,4.20,2.70,1.86,0.11,-1.97,
2.17,12.14,3.79,2.62,1.86,0.11,-1.97,
2.17,12.14,3.79,2.62,1.90,-0.01,-2.07,
2.171,12.14,3.79,2.62,1.94,-0.13,-2.17,
2.172,12.28,3.44,2.59,1.94,-0.13,-2.17,
2.172,12.28,3.44,2.59,1.97,-0.27,-2.28,
2.173,12.42,3.05,2.64,1.97,-0.27,-2.28,
2.174,12.42,3.05,2.64,2.00,-0.40,-2.40,
2.174,12.55,2.65,2.67,2.00,-0.40,-2.40,
2.175,12.70,2.23,2.70,2.00,-0.40,-2.40,
2.176,12.70,2.23,2.70,2.01,-0.53,-2.52,
2.176,12.70,2.23,2.70,2.01,-0.66,-2.64,
2.177,12.80,1.84,2.71,2.01,-0.66,-2.64,
2.178,12.80,1.84,2.71,2.01,-0.77,-2.78,
2.178,13.01,1.39,2.82,2.01,-0.77,-2.78,
2.179,13.20,0.88,2.94,2.01,-0.77,-2.78,
2.18,13.20,0.88,2.94,2.01,-0.87,-2.92,
2.181,13.40,0.37,3.08,2.01,-0.87,-2.92,
2.181,13.40,0.37,3.08,2.00,-0.97,-3.06,
2.182,13.40,0.37,3.08,1.99,-1.03,-3.20,
2.183,13.60,-0.19,3.25,1.99,-1.03,-3.20,
2.183,13.60,-0.19,3.25,1.98,-1.08,-3.34,
2.184,13.84,-0.76,3.46,1.98,-1.08,-3.34,
2.185,13.84,-0.76,3.46,1.98,-1.09,-3.47,
2.186,14.11,-1.37,3.63,1.98,-1.09,-3.47,
2.186,14.47,-2.13,3.78,1.98,-1.09,-3.47,
2.187,14.47,-2.13,3.78,1.99,-1.09,-3.61,
2.188,15.05,-3.03,3.96,1.99,-1.09,-3.61,
2.189,15.05,-3.03,3.96,2.00,-1.07,-3.74,
2.189,15.05,-3.03,3.96,2.03,-1.05,-3.89,
2.189,15.80,-4.14,4.11,2.03,-1.05,-3.89,
2.19,16.68,-5.44,4.23,2.03,-1.05,-3.89,
2.19,16.68,-5.44,4.23,2.06,-1.04,-4.04,
2.191,16.68,-5.44,4.23,2.10,-1.07,-4.19,
2.191,17.68,-6.74,4.36,2.10,-1.07,-4.19,
2.192,17.68,-6.74,4.36,2.14,-1.11,-4.33,
2.192,18.59,-8.01,4.49,2.14,-1.11,-4.33,
2.193,18.59,-8.01,4.49,2.18,-1.15,-4.47,
2.193,19.30,-9.03,4.59,2.18,-1.15,-4.47,
2.194,19.30,-9.03,4.59,2.22,-1.19,-4.58,
2.195,19.66,-9.89,4.64,2.22,-1.19,-4.58,
2.195,19.66,-9.89,4.64,2.24,-1.22,-4.67,
2.196,19.63,-10.00,4.82,2.24,-1.22,-4.67,
2.196,19.23,-10.24,4.99,2.24,-1.22,-4.67,
2.197,19.23,-10.24,4.99,2.26,-1.24,-4.70,
2.197,19.23,-10.24,4.99,2.27,-1.28,-4.67,
2.198,19.26,-11.04,4.74,2.27,-1.28,-4.67,
2.202,19.26,-11.04,4.74,2.27,-1.27,-4.65,
2.203,19.26,-11.76,4.27,2.27,-1.27,-4.65,
2.207,19.35,-12.46,3.70,2.27,-1.27,-4.65,
2.208,19.35,-12.46,3.70,2.25,-1.18,-4.62,
2.212,19.67,-13.25,3.15,2.25,-1.18,-4.62,
2.213,19.67,-13.25,3.15,2.21,-1.04,-4.62,
2.225,19.67,-13.25,3.15,2.14,-0.86,-4.65,
2.226,19.96,-13.94,2.70,2.14,-0.86,-4.65,
2.227,19.96,-13.94,2.70,2.04,-0.66,-4.72,
2.227,20.42,-14.73,2.39,2.04,-0.66,-4.72,
2.228,20.42,-14.73,2.39,1.91,-0.43,-4.85,
2.229,20.96,-15.45,2.09,1.91,-0.43,-4.85,
2.273,20.96,-15.45,2.09,1.76,-0.15,-5.06,
2.273,21.33,-16.22,1.63,1.76,-0.15,-5.06,
2.274,21.33,-16.22,1.63,1.58,0.17,-5.34,
2.275,21.03,-16.47,1.21,1.58,0.17,-5.34,
2.275,21.03,-16.47,1.21,1.38,0.51,-5.65,
2.276,19.41,-15.81,0.87,1.38,0.51,-5.65,
2.276,19.41,-15.81,0.87,1.14,0.85,-5.91,
2.276,17.47,-15.18,0.79,1.14,0.85,-5.91,
2.277,17.47,-15.18,0.79,0.88,1.17,-6.09,
2.277,16.01,-15.14,1.01,0.88,1.17,-6.09,
2.278,16.01,-15.14,1.01,0.65,1.50,-6.21,
2.278,14.96,-15.63,1.43,0.65,1.50,-6.21,
2.279,14.96,-15.63,1.43,0.46,1.84,-6.32,
2.279,14.15,-16.26,1.79,0.46,1.84,-6.32,
2.28,14.15,-16.26,1.79,0.34,2.16,-6.42,
2.28,13.21,-16.83,2.15,0.34,2.16,-6.42,
2.281,13.21,-16.83,2.15,0.26,2.42,-6.51,
2.281,12.32,-17.39,2.49,0.26,2.42,-6.51,
2.281,12.32,-17.39,2.49,0.23,2.66,-6.58,
2.282,11.55,-17.91,2.85,0.23,2.66,-6.58,
2.315,10.79,-18.36,3.32,0.23,2.66,-6.58,
2.315,10.79,-18.36,3.32,0.26,2.85,-6.64,
2.316,10.01,-18.71,3.77,0.26,2.85,-6.64,
2.317,10.01,-18.71,3.77,0.37,3.00,-6.69,
2.317,9.31,-19.08,4.13,0.37,3.00,-6.69,
2.318,9.31,-19.08,4.13,0.55,3.10,-6.70,
2.318,8.49,-19.46,4.29,0.55,3.10,-6.70,
2.319,8.49,-19.46,4.29,0.80,3.16,-6.69,
2.319,8.49,-19.46,4.29,1.11,3.18,-6.66,
2.32,7.62,-19.81,4.21,1.11,3.18,-6.66,
2.32,7.62,-19.81,4.21,1.45,3.13,-6.59,
2.321,6.78,-20.20,3.94,1.45,3.13,-6.59,
2.321,6.03,-20.50,3.41,1.45,3.13,-6.59,
2.322,6.03,-20.50,3.41,1.80,3.04,-6.50,
2.322,6.03,-20.50,3.41,2.16,2.87,-6.37,
2.323,5.48,-20.70,2.71,2.16,2.87,-6.37,
2.323,5.48,-20.70,2.71,2.48,2.66,-6.20,
2.324,5.16,-20.80,1.97,2.48,2.66,-6.20,
2.324,5.14,-20.80,1.24,2.48,2.66,-6.20,
2.325,5.14,-20.80,1.24,2.77,2.43,-6.00,
2.334,5.34,-20.70,0.42,2.77,2.43,-6.00,
2.335,5.34,-20.70,0.42,3.03,2.21,-5.78,
2.335,5.34,-20.70,0.42,3.23,2.02,-5.57,
2.336,5.50,-20.36,-0.45,3.23,2.02,-5.57,
2.366,5.50,-20.36,-0.45,3.39,1.86,-5.39,
2.366,5.41,-19.76,-1.37,3.39,1.86,-5.39,
2.367,5.41,-19.76,-1.37,3.49,1.71,-5.24,
2.367,5.41,-19.06,-2.29,3.49,1.71,-5.24,
2.368,5.41,-19.06,-2.29,3.52,1.56,-5.13,
2.368,5.45,-18.46,-3.17,3.52,1.56,-5.13,
2.368,5.45,-17.96,-3.92,3.52,1.56,-5.13,
2.369,5.45,-17.96,-3.92,3.49,1.42,-5.05,
2.369,5.35,-17.46,-4.52,3.49,1.42,-5.05,
2.369,5.35,-17.46,-4.52,3.40,1.28,-5.01,
2.37,5.16,-16.97,-4.94,3.40,1.28,-5.01,
2.37,5.16,-16.97,-4.94,3.26,1.16,-4.99,
2.37,4.84,-16.45,-5.23,3.26,1.16,-4.99,
2.371,4.84,-16.45,-5.23,3.08,1.05,-5.00,
2.378,4.84,-16.45,-5.23,2.87,0.94,-5.02,
2.379,4.47,-16.05,-5.31,2.87,0.94,-5.02,
2.379,3.98,-15.72,-5.27,2.87,0.94,-5.02,
2.379,3.98,-15.72,-5.27,2.64,0.86,-5.05,
2.415,3.46,-15.48,-5.03,2.64,0.86,-5.05,
2.416,3.46,-15.48,-5.03,2.40,0.78,-5.08,
2.417,2.96,-15.40,-4.74,2.40,0.78,-5.08,
2.418,2.96,-15.40,-4.74,2.16,0.71,-5.10,
2.418,2.96,-15.40,-4.74,1.93,0.64,-5.10,
2.418,2.56,-15.42,-4.45,1.93,0.64,-5.10,
2.419,2.56,-15.42,-4.45,1.71,0.58,-5.10,
2.419,2.09,-15.49,-4.11,1.71,0.58,-5.10,
2.419,2.09,-15.49,-4.11,1.51,0.53,-5.08,
2.419,1.68,-15.57,-3.64,1.51,0.53,-5.08,
2.42,1.68,-15.57,-3.64,1.33,0.49,-5.07,
2.42,1.30,-15.60,-3.07,1.33,0.49,-5.07,
2.421,1.30,-15.60,-3.07,1.18,0.47,-5.04,
2.421,0.96,-15.72,-2.52,1.18,0.47,-5.04,
2.422,0.51,-15.82,-1.98,1.18,0.47,-5.04,
2.422,0.51,-15.82,-1.98,1.06,0.46,-5.01,
2.422,0.10,-15.97,-1.50,1.06,0.46,-5.01,
2.423,0.10,-15.97,-1.50,0.98,0.45,-4.97,
2.427,0.10,-15.97,-1.50,0.94,0.44,-4.91,
2.427,-0.43,-16.16,-1.04,0.94,0.44,-4.91,
2.433,-0.43,-16.16,-1.04,0.93,0.41,-4.85,
2.433,-0.98,-16.37,-0.66,0.93,0.41,-4.85,
2.437,-1.59,-16.49,-0.41,0.93,0.41,-4.85,
2.437,-1.59,-16.49,-0.41,0.95,0.37,-4.76,
2.441,-2.14,-16.57,-0.25,0.95,0.37,-4.76,
2.442,-2.14,-16.57,-0.25,1.00,0.31,-4.66,
2.446,-2.14,-16.57,-0.25,1.06,0.24,-4.54,
2.447,-2.79,-16.47,-0.17,1.06,0.24,-4.54,
2.452,-2.79,-16.47,-0.17,1.13,0.17,-4.39,
2.452,-3.16,-16.41,-0.04,1.13,0.17,-4.39,
2.456,-3.36,-16.35,0.10,1.13,0.17,-4.39,
2.456,-3.36,-16.35,0.10,1.21,0.13,-4.24,
2.461,-3.44,-16.27,0.27,1.21,0.13,-4.24,
2.461,-3.44,-16.27,0.27,1.31,0.10,-4.11,
2.474,-3.44,-16.27,0.27,1.41,0.07,-3.99,
2.475,-3.56,-16.16,0.41,1.41,0.07,-3.99,
2.476,-3.56,-16.16,0.41,1.52,0.04,-3.88,
2.476,-3.73,-16.03,0.49,1.52,0.04,-3.88,
2.477,-3.73,-16.03,0.49,1.63,0.01,-3.78,
2.478,-3.94,-15.83,0.50,1.63,0.01,-3.78,
2.48,-3.94,-15.83,0.50,1.74,-0.03,-3.68,
2.481,-4.20,-15.63,0.48,1.74,-0.03,-3.68,
2.513,-4.20,-15.63,0.48,1.85,-0.06,-3.58,
2.514,-4.44,-15.46,0.45,1.85,-0.06,-3.58,
2.515,-4.44,-15.46,0.45,1.96,-0.08,-3.49,
2.516,-4.65,-15.27,0.35,1.96,-0.08,-3.49,
2.516,-4.65,-15.27,0.35,2.07,-0.10,-3.40,
2.516,-4.83,-15.08,0.24,2.07,-0.10,-3.40,
2.517,-4.83,-15.08,0.24,2.17,-0.13,-3.30,
2.517,-5.07,-14.93,0.08,2.17,-0.13,-3.30,
2.518,-5.07,-14.93,0.08,2.27,-0.17,-3.21,
2.518,-5.28,-14.87,-0.11,2.27,-0.17,-3.21,
2.518,-5.28,-14.87,-0.11,2.36,-0.22,-3.12,
2.519,-5.46,-14.85,-0.29,2.36,-0.22,-3.12,
2.519,-5.46,-14.85,-0.29,2.43,-0.27,-3.02,
2.52,-5.53,-14.81,-0.53,2.43,-0.27,-3.02,
2.52,-5.60,-14.83,-0.76,2.43,-0.27,-3.02,
2.52,-5.60,-14.83,-0.76,2.49,-0.31,-2.92,
2.549,-5.60,-14.83,-0.76,2.54,-0.34,-2.83,
2.55,-5.64,-14.90,-1.06,2.54,-0.34,-2.83,
2.55,-5.70,-15.04,-1.36,2.54,-0.34,-2.83,
2.551,-5.70,-15.04,-1.36,2.57,-0.37,-2.75,
2.551,-5.84,-15.18,-1.67,2.57,-0.37,-2.75,
2.551,-5.84,-15.18,-1.67,2.58,-0.40,-2.66,
2.552,-5.84,-15.18,-1.67,2.57,-0.42,-2.57,
2.552,-5.91,-15.29,-2.02,2.57,-0.42,-2.57,
2.553,-5.91,-15.29,-2.02,2.53,-0.42,-2.48,
2.553,-5.95,-15.44,-2.40,2.53,-0.42,-2.48,
2.554,-5.97,-15.65,-2.77,2.53,-0.42,-2.48,
2.554,-5.97,-15.65,-2.77,2.46,-0.42,-2.39,
2.555,-5.93,-15.95,-3.17,2.46,-0.42,-2.39,
2.555,-5.93,-15.95,-3.17,2.37,-0.43,-2.30,
2.558,-5.93,-15.95,-3.17,2.26,-0.44,-2.20,
2.559,-6.03,-16.18,-3.46,2.26,-0.44,-2.20,
2.563,-6.32,-16.30,-3.61,2.26,-0.44,-2.20,
2.564,-6.32,-16.30,-3.61,2.12,-0.43,-2.09,
2.573,-6.32,-16.30,-3.61,1.97,-0.41,-1.97,
2.574,-6.85,-16.29,-3.67,1.97,-0.41,-1.97,
2.574,-6.85,-16.29,-3.67,1.80,-0.39,-1.84,
2.575,-7.40,-16.13,-3.65,1.80,-0.39,-1.84,
2.578,-7.40,-16.13,-3.65,1.63,-0.35,-1.68,
2.578,-7.88,-16.00,-3.55,1.63,-0.35,-1.68,
2.608,-7.88,-16.00,-3.55,1.45,-0.31,-1.52,
2.609,-8.21,-15.79,-3.42,1.45,-0.31,-1.52,
2.609,-8.42,-15.71,-3.31,1.45,-0.31,-1.52,
2.609,-8.42,-15.71,-3.31,1.28,-0.27,-1.34,
2.61,-8.42,-15.71,-3.31,1.11,-0.24,-1.17,
2.61,-8.62,-15.58,-3.23,1.11,-0.24,-1.17,
2.61,-8.62,-15.58,-3.23,0.95,-0.21,-0.99,
2.611,-8.79,-15.50,-3.20,0.95,-0.21,-0.99,
2.611,-8.79,-15.50,-3.20,0.78,-0.19,-0.82,
2.612,-8.98,-15.42,-3.21,0.78,-0.19,-0.82,
2.612,-8.98,-15.42,-3.21,0.61,-0.17,-0.64,
2.613,-9.08,-15.35,-3.25,0.61,-0.17,-0.64,
2.613,-9.21,-15.30,-3.30,0.61,-0.17,-0.64,
2.613,-9.21,-15.30,-3.30,0.42,-0.14,-0.47,
2.618,-9.21,-15.30,-3.30,0.22,-0.10,-0.29,
2.618,-9.33,-15.25,-3.28,0.22,-0.10,-0.29,
2.622,-9.49,-15.22,-3.16,0.22,-0.10,-0.29,
2.622,-9.49,-15.22,-3.16,0.01,-0.07,-0.12,
2.627,-9.63,-15.19,-2.99,0.01,-0.07,-0.12,
2.627,-9.63,-15.19,-2.99,-0.19,-0.02,0.06,
2.631,-9.70,-15.17,-2.72,-0.19,-0.02,0.06,
2.632,-9.70,-15.17,-2.72,-0.38,0.02,0.24,
2.637,-9.83,-15.16,-2.36,-0.38,0.02,0.24,
2.638,-9.83,-15.16,-2.36,-0.56,0.05,0.42,
2.641,-9.95,-15.22,-1.96,-0.56,0.05,0.42,
2.642,-9.95,-15.22,-1.96,-0.72,0.07,0.60,
2.646,-10.10,-15.30,-1.55,-0.72,0.07,0.60,
2.647,-10.10,-15.30,-1.55,-0.84,0.08,0.80,
2.658,-10.10,-15.30,-1.55,-0.94,0.06,1.00,
2.658,-10.21,-15.41,-1.11,-0.94,0.06,1.00,
2.659,-10.23,-15.49,-0.60,-0.94,0.06,1.00,
2.659,-10.23,-15.49,-0.60,-0.99,0.03,1.21,
2.661,-10.12,-15.61,-0.11,-0.99,0.03,1.21,
2.662,-10.12,-15.61,-0.11,-1.01,-0.03,1.41,
2.665,-10.12,-15.61,-0.11,-0.99,-0.13,1.63,
2.666,-9.84,-15.70,0.42,-0.99,-0.13,1.63,
2.694,-9.43,-15.88,0.82,-0.99,-0.13,1.63,
2.695,-9.43,-15.88,0.82,-0.94,-0.25,1.85,
2.695,-9.03,-16.11,1.10,-0.94,-0.25,1.85,
2.696,-9.03,-16.11,1.10,-0.85,-0.38,2.06,
2.696,-9.03,-16.11,1.10,-0.74,-0.51,2.27,
2.696,-8.53,-16.44,1.13,-0.74,-0.51,2.27,
2.697,-8.53,-16.44,1.13,-0.63,-0.63,2.49,
2.697,-7.95,-16.92,1.04,-0.63,-0.63,2.49,
2.698,-7.32,-17.41,0.79,-0.63,-0.63,2.49,
2.698,-7.32,-17.41,0.79,-0.51,-0.73,2.71,
2.698,-7.32,-17.41,0.79,-0.41,-0.81,2.92,
2.699,-6.68,-17.89,0.43,-0.41,-0.81,2.92,
2.722,-6.68,-17.89,0.43,-0.32,-0.84,3.14,
2.723,-6.16,-18.30,-0.07,-0.32,-0.84,3.14,
2.724,-6.16,-18.30,-0.07,-0.27,-0.86,3.36,
2.724,-5.62,-18.64,-0.65,-0.27,-0.86,3.36,
2.724,-5.06,-18.89,-1.26,-0.27,-0.86,3.36,
2.725,-5.06,-18.89,-1.26,-0.25,-0.86,3.57,
2.725,-5.06,-18.89,-1.26,-0.28,-0.84,3.77,
2.726,-4.47,-19.09,-1.81,-0.28,-0.84,3.77,
2.726,-4.47,-19.09,-1.81,-0.35,-0.82,3.96,
2.726,-3.82,-19.30,-2.37,-0.35,-0.82,3.96,
2.727,-3.20,-19.50,-2.91,-0.35,-0.82,3.96,
2.727,-3.20,-19.50,-2.91,-0.46,-0.79,4.14,
2.729,-2.49,-19.81,-3.54,-0.46,-0.79,4.14,
2.73,-2.49,-19.81,-3.54,-0.61,-0.75,4.30,
2.752,-2.49,-19.81,-3.54,-0.81,-0.73,4.45,
2.753,-1.76,-20.18,-4.21,-0.81,-0.73,4.45,
2.754,-1.01,-20.52,-4.79,-0.81,-0.73,4.45,
2.754,-1.01,-20.52,-4.79,-1.05,-0.72,4.57,
2.755,-0.26,-20.85,-5.34,-1.05,-0.72,4.57,
2.755,-0.26,-20.85,-5.34,-1.34,-0.72,4.69,
2.755,0.32,-21.21,-5.89,-1.34,-0.72,4.69,
2.756,0.32,-21.21,-5.89,-1.68,-0.73,4.79,
2.756,0.32,-21.21,-5.89,-2.06,-0.74,4.89,
2.756,0.72,-21.69,-6.34,-2.06,-0.74,4.89,
2.759,0.72,-21.69,-6.34,-2.48,-0.78,5.00,
2.759,1.02,-22.26,-6.65,-2.48,-0.78,5.00,
2.763,1.02,-22.26,-6.65,-2.94,-0.82,5.13,
2.764,1.24,-23.06,-6.68,-2.94,-0.82,5.13,
2.796,1.48,-23.97,-6.43,-2.94,-0.82,5.13,
2.796,1.48,-23.97,-6.43,-3.41,-0.88,5.30,
2.797,1.81,-24.97,-5.96,-3.41,-0.88,5.30,
2.797,1.81,-24.97,-5.96,-3.88,-0.95,5.53,
2.798,1.81,-24.97,-5.96,-4.35,-1.03,5.79,
2.798,2.19,-26.03,-5.25,-4.35,-1.03,5.79,
2.799,2.19,-26.03,-5.25,-4.77,-1.11,6.09,
2.799,2.64,-27.02,-4.34,-4.77,-1.11,6.09,
2.799,2.64,-27.02,-4.34,-5.16,-1.20,6.44,
2.8,3.33,-27.98,-3.13,-5.16,-1.20,6.44,
2.801,4.34,-28.98,-1.71,-5.16,-1.20,6.44,
2.801,4.34,-28.98,-1.71,-5.47,-1.30,6.81,
2.802,5.60,-30.01,-0.21,-5.47,-1.30,6.81,
2.802,5.60,-30.01,-0.21,-5.70,-1.39,7.19,
2.803,7.02,-31.07,1.35,-5.70,-1.39,7.19,
2.803,7.02,-31.07,1.35,-5.83,-1.49,7.58,
2.807,8.52,-32.04,2.81,-5.83,-1.49,7.58,
2.808,8.52,-32.04,2.81,-5.86,-1.59,7.96,
2.812,10.04,-32.72,4.20,-5.86,-1.59,7.96,
2.813,10.04,-32.72,4.20,-5.79,-1.68,8.33,
2.824,11.52,-33.12,5.45,-5.79,-1.68,8.33,
2.825,11.52,-33.12,5.45,-5.65,-1.76,8.70,
2.825,11.52,-33.12,5.45,-5.42,-1.82,9.04,
2.826,12.91,-33.37,6.38,-5.42,-1.82,9.04,
2.826,14.15,-33.53,6.88,-5.42,-1.82,9.04,
2.827,14.15,-33.53,6.88,-5.14,-1.87,9.37,
2.832,15.88,-33.86,7.08,-5.14,-1.87,9.37,
2.832,15.88,-33.86,7.08,-4.83,-1.88,9.69,
2.857,15.88,-33.86,7.08,-4.50,-1.85,9.96,
2.858,17.85,-34.12,7.02,-4.50,-1.85,9.96,
2.858,19.87,-34.20,6.83,-4.50,-1.85,9.96,
2.859,19.87,-34.20,6.83,-4.18,-1.79,10.17,
2.859,21.77,-34.07,6.53,-4.18,-1.79,10.17,
2.86,21.77,-34.07,6.53,-3.87,-1.72,10.32,
2.86,23.67,-33.82,6.06,-3.87,-1.72,10.32,
2.861,23.67,-33.82,6.06,-3.58,-1.65,10.41,
2.861,25.49,-33.51,5.59,-3.58,-1.65,10.41,
2.862,25.49,-33.51,5.59,-3.32,-1.58,10.47,
2.862,25.49,-33.51,5.59,-3.09,-1.54,10.47,
2.863,27.15,-33.35,5.07,-3.09,-1.54,10.47,
2.866,27.15,-33.35,5.07,-2.89,-1.51,10.45,
2.866,28.56,-33.13,4.62,-2.89,-1.51,10.45,
2.875,28.56,-33.13,4.62,-2.71,-1.49,10.41,
2.876,29.59,-32.68,4.28,-2.71,-1.49,10.41,
2.876,30.19,-31.87,4.03,-2.71,-1.49,10.41,
2.877,30.19,-31.87,4.03,-2.56,-1.49,10.36,
2.88,30.46,-30.84,3.95,-2.56,-1.49,10.36,
2.881,30.46,-30.84,3.95,-2.44,-1.51,10.30,
2.904,30.46,-30.84,3.95,-2.33,-1.56,10.25,
2.905,30.57,-29.76,4.06,-2.33,-1.56,10.25,
2.905,30.65,-28.77,4.41,-2.33,-1.56,10.25,
2.906,30.65,-28.77,4.41,-2.21,-1.62,10.19,
2.906,30.77,-27.84,5.04,-2.21,-1.62,10.19,
2.907,30.77,-27.84,5.04,-2.06,-1.69,10.14,
2.907,30.77,-27.84,5.04,-1.88,-1.77,10.09,
2.908,31.21,-26.71,5.97,-1.88,-1.77,10.09,
2.909,31.77,-25.18,7.27,-1.88,-1.77,10.09,
2.909,31.77,-25.18,7.27,-1.65,-1.86,10.02,
2.91,32.12,-23.20,8.32,-1.65,-1.86,10.02,
2.91,32.12,-23.20,8.32,-1.36,-1.94,9.92,
2.914,31.85,-21.18,8.67,-1.36,-1.94,9.92,
2.915,31.85,-21.18,8.67,-1.04,-2.01,9.77,
2.924,31.85,-21.18,8.67,-0.71,-2.07,9.58,
2.925,31.14,-19.17,8.19,-0.71,-2.07,9.58,
2.926,31.14,-19.17,8.19,-0.43,-2.09,9.33,
2.926,30.47,-17.35,7.22,-0.43,-2.09,9.33,
2.929,30.47,-17.35,7.22,-0.22,-2.09,9.04,
2.929,29.96,-15.71,6.07,-0.22,-2.09,9.04,
2.955,29.96,-15.71,6.07,-0.10,-2.09,8.71,
2.956,29.35,-14.15,5.14,-0.10,-2.09,8.71,
2.957,29.35,-14.15,5.14,-0.07,-2.08,8.37,
2.957,28.17,-12.72,4.28,-0.07,-2.08,8.37,
2.958,28.17,-12.72,4.28,-0.13,-2.05,8.05,
2.958,26.75,-11.30,3.36,-0.13,-2.05,8.05,
2.959,26.75,-11.30,3.36,-0.28,-1.96,7.77,
2.959,25.29,-10.14,2.49,-0.28,-1.96,7.77,
2.96,25.29,-10.14,2.49,-0.51,-1.80,7.55,
2.96,23.87,-9.45,1.99,-0.51,-1.80,7.55,
2.961,23.87,-9.45,1.99,-0.79,-1.55,7.39,
2.961,22.79,-9.07,1.97,-0.79,-1.55,7.39,
2.963,22.79,-9.07,1.97,-1.09,-1.27,7.30,
2.964,22.11,-8.84,2.62,-1.09,-1.27,7.30,
2.969,22.11,-8.84,2.62,-1.37,-0.99,7.23,
2.969,22.28,-8.61,3.48,-1.37,-0.99,7.23,
2.973,22.22,-8.63,4.40,-1.37,-0.99,7.23,
2.973,22.22,-8.63,4.40,-1.61,-0.71,7.15,
2.978,22.22,-8.63,4.40,-1.81,-0.41,7.05,
2.978,22.68,-8.45,5.34,-1.81,-0.41,7.05,
2.983,23.31,-8.09,6.36,-1.81,-0.41,7.05,
2.983,23.31,-8.09,6.36,-1.96,-0.09,6.92,
2.991,24.01,-7.68,7.62,-1.96,-0.09,6.92,
2.993,24.01,-7.68,7.62,-2.07,0.24,6.72,
2.993,24.01,-7.68,7.62,-2.13,0.54,6.45,
2.993,24.56,-7.04,9.08,-2.13,0.54,6.45,
2.997,24.63,-6.48,10.48,-2.13,0.54,6.45,
2.998,24.63,-6.48,10.48,-2.14,0.83,6.11,
3.024,23.88,-6.06,11.84,-2.14,0.83,6.11,
3.025,23.88,-6.06,11.84,-2.06,1.10,5.73,
3.025,22.61,-5.77,12.87,-2.06,1.10,5.73,
3.026,22.61,-5.77,12.87,-1.89,1.37,5.37,
3.059,21.32,-5.61,13.33,-1.89,1.37,5.37,
3.06,21.32,-5.61,13.33,-1.66,1.65,5.07,
3.06,21.32,-5.61,13.33,-1.38,1.91,4.84,
3.061,20.22,-5.57,13.11,-1.38,1.91,4.84,
3.061,20.22,-5.57,13.11,-1.09,2.12,4.69,
3.062,19.27,-5.82,12.47,-1.09,2.12,4.69,
3.062,18.26,-5.78,11.73,-1.09,2.12,4.69,
3.063,18.26,-5.78,11.73,-0.80,2.28,4.63,
3.063,18.26,-5.78,11.73,-0.53,2.39,4.64,
3.063,17.15,-5.55,11.01,-0.53,2.39,4.64,
3.064,17.15,-5.55,11.01,-0.30,2.47,4.71,
3.064,16.30,-5.16,10.17,-0.30,2.47,4.71,
3.065,15.75,-4.72,9.38,-0.30,2.47,4.71,
3.066,15.75,-4.72,9.38,-0.11,2.52,4.83,
3.066,15.75,-4.72,9.38,0.04,2.51,4.98,
3.066,15.54,-4.37,8.73,0.04,2.51,4.98,
3.067,15.54,-4.37,8.73,0.16,2.44,5.14,
3.067,15.57,-3.92,8.14,0.16,2.44,5.14,
3.068,15.70,-3.42,7.53,0.16,2.44,5.14,
3.068,15.70,-3.42,7.53,0.24,2.33,5.30,
3.069,15.70,-3.42,7.53,0.29,2.17,5.44,
3.069,16.00,-2.86,7.09,0.29,2.17,5.44,
3.069,16.49,-2.24,6.83,0.29,2.17,5.44,
3.07,16.49,-2.24,6.83,0.31,1.97,5.56,
3.07,17.26,-1.55,6.71,0.31,1.97,5.56,
3.07,17.26,-1.55,6.71,0.31,1.76,5.65,
3.076,18.26,-0.92,6.73,0.31,1.76,5.65,
3.076,18.26,-0.92,6.73,0.31,1.53,5.70,
3.08,19.61,-0.30,6.83,0.31,1.53,5.70,
3.081,19.61,-0.30,6.83,0.31,1.28,5.71,
3.09,19.61,-0.30,6.83,0.33,1.01,5.68,
3.091,21.09,0.46,7.02,0.33,1.01,5.68,
3.092,21.09,0.46,7.02,0.38,0.77,5.60,
3.092,22.45,1.55,7.41,0.38,0.77,5.60,
3.095,22.45,1.55,7.41,0.45,0.57,5.48,
3.095,23.68,2.94,7.87,0.45,0.57,5.48,
3.099,23.68,2.94,7.87,0.55,0.40,5.29,
3.1,25.06,4.29,8.32,0.55,0.40,5.29,
3.126,25.06,4.29,8.32,0.69,0.28,5.04,
3.126,26.46,5.50,8.66,0.69,0.28,5.04,
3.127,26.46,5.50,8.66,0.85,0.21,4.72,
3.127,27.66,6.42,8.70,0.85,0.21,4.72,
3.128,27.66,6.42,8.70,1.03,0.16,4.36,
3.128,28.61,7.18,8.63,1.03,0.16,4.36,
3.128,28.61,7.18,8.63,1.22,0.15,3.97,
3.129,29.31,7.89,8.40,1.22,0.15,3.97,
3.129,29.31,7.89,8.40,1.40,0.21,3.56,
3.129,29.54,8.51,7.97,1.40,0.21,3.56,
3.13,29.41,9.09,7.32,1.40,0.21,3.56,
3.13,29.41,9.09,7.32,1.56,0.32,3.15,
3.138,29.41,9.09,7.32,1.68,0.48,2.75,
3.139,29.09,9.50,6.41,1.68,0.48,2.75,
3.139,29.09,9.50,6.41,1.73,0.67,2.37,
3.14,28.70,9.82,5.22,1.73,0.67,2.37,
3.144,28.70,9.82,5.22,1.70,0.87,2.04,
3.144,28.32,9.94,4.14,1.70,0.87,2.04,
3.149,27.68,10.00,3.49,1.70,0.87,2.04,
3.149,27.68,10.00,3.49,1.61,1.08,1.73,
3.154,26.89,10.17,3.03,1.61,1.08,1.73,
3.155,26.89,10.17,3.03,1.48,1.29,1.48,
3.158,26.41,10.34,2.31,1.48,1.29,1.48,
3.159,26.41,10.34,2.31,1.32,1.55,1.24,
3.163,26.27,10.33,2.00,1.32,1.55,1.24,
3.164,26.27,10.33,2.00,1.09,1.85,0.99,
3.169,25.98,10.09,1.85,1.09,1.85,0.99,
3.17,25.98,10.09,1.85,0.81,2.09,0.71,
3.173,25.50,9.92,1.98,0.81,2.09,0.71,
3.174,25.50,9.92,1.98,0.55,2.25,0.41,
3.178,24.91,9.89,2.22,0.55,2.25,0.41,
3.178,24.91,9.89,2.22,0.32,2.35,0.12,
3.183,24.13,9.75,2.70,0.32,2.35,0.12,
3.183,24.13,9.75,2.70,0.13,2.42,-0.17,
3.188,23.41,9.48,3.26,0.13,2.42,-0.17,
3.189,23.41,9.48,3.26,-0.01,2.44,-0.44,
3.193,22.69,9.20,3.70,-0.01,2.44,-0.44,
3.194,22.69,9.20,3.70,-0.12,2.41,-0.69,
3.198,22.13,8.97,4.06,-0.12,2.41,-0.69,
3.198,22.13,8.97,4.06,-0.18,2.33,-0.93,
3.213,22.13,8.97,4.06,-0.21,2.22,-1.17,
3.214,21.69,8.67,4.22,-0.21,2.22,-1.17,
3.215,21.23,8.44,4.31,-0.21,2.22,-1.17,
3.215,21.23,8.44,4.31,-0.23,2.10,-1.40,
3.216,20.81,8.06,4.30,-0.23,2.10,-1.40,
3.217,20.81,8.06,4.30,-0.25,1.96,-1.62,
3.218,20.81,8.06,4.30,-0.28,1.83,-1.83,
3.219,20.79,7.52,4.33,-0.28,1.83,-1.83,
3.253,20.79,7.52,4.33,-0.31,1.68,-2.04,
3.253,20.97,6.85,4.49,-0.31,1.68,-2.04,
3.254,20.97,6.85,4.49,-0.33,1.50,-2.24,
3.255,21.04,6.18,4.77,-0.33,1.50,-2.24,
3.255,21.04,6.18,4.77,-0.34,1.27,-2.42,
3.256,21.06,5.48,5.04,-0.34,1.27,-2.42,
3.256,21.06,5.48,5.04,-0.32,1.01,-2.57,
3.257,21.06,4.86,5.41,-0.32,1.01,-2.57,
3.257,21.06,4.86,5.41,-0.28,0.74,-2.69,
3.258,21.35,4.34,5.77,-0.28,0.74,-2.69,
3.258,21.35,4.34,5.77,-0.24,0.43,-2.79,
3.259,21.85,3.82,6.19,-0.24,0.43,-2.79,
3.259,21.85,3.82,6.19,-0.18,0.12,-2.91,
3.26,22.44,3.34,6.66,-0.18,0.12,-2.91,
3.299,23.28,2.82,7.10,-0.18,0.12,-2.91,
3.3,23.28,2.82,7.10,-0.13,-0.21,-3.05,
3.301,23.28,2.82,7.10,-0.08,-0.55,-3.23,
3.302,24.07,2.16,7.57,-0.08,-0.55,-3.23,
3.302,24.07,2.16,7.57,-0.04,-0.87,-3.46,
3.303,24.76,1.35,8.13,-0.04,-0.87,-3.46,
3.304,24.76,1.35,8.13,-0.03,-1.19,-3.73,
3.305,25.48,0.36,8.61,-0.03,-1.19,-3.73,
3.306,25.48,0.36,8.61,-0.04,-1.49,-4.03,
3.306,26.11,-0.62,9.16,-0.04,-1.49,-4.03,
3.307,26.11,-0.62,9.16,-0.06,-1.78,-4.36,
3.308,26.59,-1.87,9.80,-0.06,-1.78,-4.36,
3.308,26.59,-1.87,9.80,-0.11,-2.03,-4.72,
3.309,26.96,-3.37,10.67,-0.11,-2.03,-4.72,
3.31,27.12,-5.03,11.83,-0.11,-2.03,-4.72,
3.31,27.12,-5.03,11.83,-0.14,-2.22,-5.09,
3.311,27.12,-5.03,11.83,-0.15,-2.34,-5.47,
3.311,26.94,-6.63,13.29,-0.15,-2.34,-5.47,
3.312,26.50,-8.19,14.82,-0.15,-2.34,-5.47,
3.313,26.50,-8.19,14.82,-0.11,-2.39,-5.85,
3.313,25.75,-9.79,16.07,-0.11,-2.39,-5.85,
3.314,25.75,-9.79,16.07,0.00,-2.37,-6.23,
3.314,25.75,-9.79,16.07,0.19,-2.27,-6.60,
3.315,24.68,-11.22,17.00,0.19,-2.27,-6.60,
3.315,23.72,-12.44,17.51,0.19,-2.27,-6.60,
3.316,23.72,-12.44,17.51,0.44,-2.15,-6.92,
3.319,23.72,-12.44,17.51,0.73,-1.99,-7.20,
3.32,22.81,-13.50,17.47,0.73,-1.99,-7.20,
3.325,22.81,-13.50,17.47,1.06,-1.81,-7.44,
3.325,22.21,-14.55,16.90,1.06,-1.81,-7.44,
3.329,22.21,-14.55,16.90,1.37,-1.62,-7.66,
3.33,22.02,-15.68,15.73,1.37,-1.62,-7.66,
3.334,21.94,-16.91,14.33,1.37,-1.62,-7.66,
3.335,21.94,-16.91,14.33,1.66,-1.45,-7.86,
3.342,21.94,-16.91,14.33,1.90,-1.28,-8.05,
3.343,22.03,-18.17,12.95,1.90,-1.28,-8.05,
3.344,22.03,-18.17,12.95,2.09,-1.13,-8.24,
3.345,22.34,-19.55,11.40,2.09,-1.13,-8.24,
3.349,22.34,-19.55,11.40,2.23,-1.01,-8.43,
3.349,22.88,-21.15,9.98,2.23,-1.01,-8.43,
3.378,22.88,-21.15,9.98,2.34,-0.92,-8.62,
3.379,23.68,-23.09,8.72,2.34,-0.92,-8.62,
3.379,24.40,-25.36,7.74,2.34,-0.92,-8.62,
3.38,24.40,-25.36,7.74,2.41,-0.84,-8.79,
3.381,24.40,-25.36,7.74,2.45,-0.78,-8.95,
3.381,24.57,-27.41,7.09,2.45,-0.78,-8.95,
3.382,24.57,-27.41,7.09,2.47,-0.70,-9.08,
3.382,24.14,-28.86,6.61,2.47,-0.70,-9.08,
3.383,24.14,-28.86,6.61,2.48,-0.60,-9.17,
3.383,23.27,-29.75,6.43,2.48,-0.60,-9.17,
3.384,23.27,-29.75,6.43,2.49,-0.47,-9.21,
3.384,22.40,-30.26,6.44,2.49,-0.47,-9.21,
3.385,22.40,-30.26,6.44,2.51,-0.34,-9.21,
3.385,21.67,-30.62,6.46,2.51,-0.34,-9.21,
3.388,21.18,-31.16,6.37,2.51,-0.34,-9.21,
3.389,21.18,-31.16,6.37,2.57,-0.19,-9.18,
3.392,20.75,-31.60,6.25,2.57,-0.19,-9.18,
3.393,20.75,-31.60,6.25,2.64,-0.03,-9.13,
3.397,20.30,-31.84,6.50,2.64,-0.03,-9.13,
3.398,20.30,-31.84,6.50,2.72,0.16,-9.08,
3.402,20.30,-31.84,6.50,2.83,0.37,-9.02,
3.403,20.14,-32.09,6.13,2.83,0.37,-9.02,
3.407,20.06,-32.36,4.86,2.83,0.37,-9.02,
3.408,20.06,-32.36,4.86,2.94,0.58,-8.94,
3.412,20.08,-32.64,3.52,2.94,0.58,-8.94,
3.412,20.08,-32.64,3.52,3.01,0.76,-8.88,
3.416,19.55,-32.93,2.52,3.01,0.76,-8.88,
3.417,19.55,-32.93,2.52,3.03,0.94,-8.84,
3.421,18.54,-33.23,1.97,3.03,0.94,-8.84,
3.422,18.54,-33.23,1.97,3.02,1.12,-8.81,
3.426,17.64,-33.55,1.49,3.02,1.12,-8.81,
3.427,17.64,-33.55,1.49,2.97,1.29,-8.79,
3.431,17.04,-33.72,0.99,2.97,1.29,-8.79,
3.432,17.04,-33.72,0.99,2.91,1.42,-8.75,
3.444,16.77,-33.95,0.66,2.91,1.42,-8.75,
3.446,16.77,-33.95,0.66,2.85,1.52,-8.70,
3.446,16.55,-34.19,0.49,2.85,1.52,-8.70,
3.447,16.55,-34.19,0.49,2.79,1.61,-8.64,
3.447,16.55,-34.19,0.49,2.75,1.68,-8.55,
3.448,16.02,-34.23,0.42,2.75,1.68,-8.55,
3.451,16.02,-34.23,0.42,2.72,1.74,-8.46,
3.451,15.31,-34.00,0.33,2.72,1.74,-8.46,
3.489,14.58,-33.53,0.13,2.72,1.74,-8.46,
3.49,14.58,-33.53,0.13,2.70,1.76,-8.36,
3.491,14.05,-33.09,0.00,2.70,1.76,-8.36,
3.491,14.05,-33.09,0.00,2.67,1.77,-8.26,
3.492,13.67,-32.85,-0.05,2.67,1.77,-8.26,
3.492,13.67,-32.85,-0.05,2.65,1.77,-8.16,
3.493,13.19,-32.62,-0.11,2.65,1.77,-8.16,
3.493,13.19,-32.62,-0.11,2.65,1.78,-8.06,
3.494,12.54,-32.39,-0.08,2.65,1.78,-8.06,
3.494,12.54,-32.39,-0.08,2.65,1.79,-7.96,
3.495,12.54,-32.39,-0.08,2.66,1.80,-7.86,
3.495,11.80,-32.03,0.00,2.66,1.80,-7.86,
3.496,11.80,-32.03,0.00,2.68,1.82,-7.75,
3.496,11.15,-31.66,0.04,2.68,1.82,-7.75,
3.497,11.15,-31.66,0.04,2.73,1.83,-7.63,
3.497,10.47,-31.28,0.17,2.73,1.83,-7.63,
3.498,10.47,-31.28,0.17,2.80,1.83,-7.51,
3.498,9.67,-30.81,0.30,2.80,1.83,-7.51,
3.534,9.67,-30.81,0.30,2.90,1.83,-7.39,
3.534,8.77,-30.22,0.33,2.90,1.83,-7.39,
3.534,8.77,-30.22,0.33,3.00,1.83,-7.27,
3.535,7.93,-29.61,0.29,3.00,1.83,-7.27,
3.535,7.93,-29.61,0.29,3.11,1.82,-7.14,
3.536,7.20,-29.04,0.16,3.11,1.82,-7.14,
3.536,6.46,-28.54,-0.07,3.11,1.82,-7.14,
3.537,6.46,-28.54,-0.07,3.23,1.78,-7.01,
3.537,6.46,-28.54,-0.07,3.34,1.74,-6.88,
3.538,5.80,-28.09,-0.34,3.34,1.74,-6.88,
3.538,5.80,-28.09,-0.34,3.45,1.69,-6.74,
3.538,5.09,-27.62,-0.66,3.45,1.69,-6.74,
3.539,5.09,-27.62,-0.66,3.53,1.62,-6.61,
3.539,4.43,-27.19,-1.07,3.53,1.62,-6.61,
3.54,3.82,-26.76,-1.54,3.53,1.62,-6.61,
3.541,3.82,-26.76,-1.54,3.60,1.53,-6.47,
3.541,3.42,-26.48,-2.12,3.60,1.53,-6.47,
3.541,3.42,-26.48,-2.12,3.64,1.42,-6.34,
3.55,3.42,-26.48,-2.12,3.65,1.27,-6.19,
3.551,3.36,-26.40,-2.68,3.65,1.27,-6.19,
3.551,3.36,-26.40,-2.68,3.64,1.11,-6.05,
3.552,3.43,-26.51,-3.19,3.64,1.11,-6.05,
3.583,3.43,-26.51,-3.19,3.59,0.95,-5.90,
3.584,3.30,-26.47,-3.61,3.59,0.95,-5.90,
3.584,2.86,-26.19,-3.96,3.59,0.95,-5.90,
3.585,2.86,-26.19,-3.96,3.50,0.78,-5.75,
3.585,2.86,-26.19,-3.96,3.38,0.62,-5.60,
3.585,2.18,-25.52,-4.20,3.38,0.62,-5.60,
3.586,2.18,-25.52,-4.20,3.22,0.45,-5.45,
3.586,1.46,-24.70,-4.33,3.22,0.45,-5.45,
3.587,1.46,-24.70,-4.33,3.03,0.31,-5.30,
3.588,0.88,-23.83,-4.37,3.03,0.31,-5.30,
3.588,0.88,-23.83,-4.37,2.82,0.15,-5.16,
3.589,0.43,-23.01,-4.18,2.82,0.15,-5.16,
3.589,0.07,-22.32,-3.75,2.82,0.15,-5.16,
3.589,0.07,-22.32,-3.75,2.60,-0.00,-5.03,
3.59,0.07,-22.32,-3.75,2.38,-0.15,-4.91,
3.59,-0.02,-21.78,-3.16,2.38,-0.15,-4.91,
3.597,0.07,-21.37,-2.46,2.38,-0.15,-4.91,
3.598,0.07,-21.37,-2.46,2.19,-0.31,-4.81,
3.599,0.26,-21.17,-1.79,2.19,-0.31,-4.81,
3.599,0.26,-21.17,-1.79,2.02,-0.48,-4.72,
3.602,0.37,-21.14,-1.10,2.02,-0.48,-4.72,
3.603,0.37,-21.14,-1.10,1.88,-0.63,-4.64,
3.629,0.37,-21.14,-1.10,1.77,-0.78,-4.58,
3.629,0.43,-21.12,-0.40,1.77,-0.78,-4.58,
3.63,0.50,-21.12,0.28,1.77,-0.78,-4.58,
3.63,0.50,-21.12,0.28,1.70,-0.91,-4.54,
3.631,0.47,-21.09,0.92,1.70,-0.91,-4.54,
3.631,0.47,-21.09,0.92,1.67,-1.02,-4.50,
3.632,0.47,-21.09,0.92,1.66,-1.11,-4.48,
3.632,0.50,-21.07,1.48,1.66,-1.11,-4.48,
3.633,0.60,-21.06,2.03,1.66,-1.11,-4.48,
3.633,0.60,-21.06,2.03,1.68,-1.19,-4.47,
3.633,0.60,-21.06,2.03,1.72,-1.24,-4.47,
3.634,0.73,-21.16,2.44,1.72,-1.24,-4.47,
3.638,0.73,-21.16,2.44,1.79,-1.25,-4.51,
3.639,0.87,-21.31,2.71,1.79,-1.25,-4.51,
3.641,0.56,-21.55,2.76,1.79,-1.25,-4.51,
3.642,0.56,-21.55,2.76,1.87,-1.25,-4.56,
3.646,0.31,-21.85,2.67,1.87,-1.25,-4.56,
3.646,0.31,-21.85,2.67,1.94,-1.23,-4.62,
3.651,0.31,-21.85,2.67,2.01,-1.18,-4.69,
3.651,0.02,-22.15,2.48,2.01,-1.18,-4.69,
3.659,0.02,-22.15,2.48,2.06,-1.11,-4.77,
3.66,-0.36,-22.48,2.25,2.06,-1.11,-4.77,
3.66,-0.36,-22.48,2.25,2.09,-1.03,-4.86,
3.661,-0.97,-22.69,2.05,2.09,-1.03,-4.86,
3.665,-0.97,-22.69,2.05,2.11,-0.92,-4.95,
3.666,-1.71,-22.76,1.93,2.11,-0.92,-4.95,
3.693,-1.71,-22.76,1.93,2.13,-0.80,-5.03,
3.694,-2.56,-22.80,1.79,2.13,-0.80,-5.03,
3.695,-2.56,-22.80,1.79,2.15,-0.66,-5.11,
3.695,-3.73,-22.85,1.65,2.15,-0.66,-5.11,
3.696,-3.73,-22.85,1.65,2.18,-0.51,-5.18,
3.696,-5.20,-23.02,1.32,2.18,-0.51,-5.18,
3.697,-5.20,-23.02,1.32,2.22,-0.38,-5.20,
3.697,-7.17,-23.30,0.69,2.22,-0.38,-5.20,
3.698,-9.57,-23.57,-0.23,2.22,-0.38,-5.20,
3.699,-9.57,-23.57,-0.23,2.26,-0.29,-5.15,
3.699,-9.57,-23.57,-0.23,2.27,-0.22,-4.99,
3.7,-12.02,-23.74,-1.31,2.27,-0.22,-4.99,
3.7,-12.02,-23.74,-1.31,2.23,-0.20,-4.72,
3.701,-14.23,-23.66,-2.33,2.23,-0.20,-4.72,
3.711,-14.23,-23.66,-2.33,2.14,-0.21,-4.33,
3.712,-15.92,-23.52,-3.19,2.14,-0.21,-4.33,
3.713,-15.92,-23.52,-3.19,2.00,-0.26,-3.86,
3.713,-16.89,-23.31,-3.73,2.00,-0.26,-3.86,
3.714,-16.89,-23.31,-3.73,1.82,-0.36,-3.32,
3.714,-17.43,-22.98,-4.03,1.82,-0.36,-3.32,
3.719,-17.58,-22.64,-4.19,1.82,-0.36,-3.32,
3.72,-17.58,-22.64,-4.19,1.62,-0.48,-2.74,
3.745,-17.19,-22.28,-4.21,1.62,-0.48,-2.74,
3.746,-17.19,-22.28,-4.21,1.42,-0.60,-2.15,
3.746,-16.36,-21.96,-4.07,1.42,-0.60,-2.15,
3.747,-16.36,-21.96,-4.07,1.22,-0.72,-1.56,
3.747,-15.17,-21.61,-3.74,1.22,-0.72,-1.56,
3.748,-15.17,-21.61,-3.74,1.02,-0.82,-1.02,
3.748,-13.75,-21.28,-3.22,1.02,-0.82,-1.02,
3.749,-13.75,-21.28,-3.22,0.84,-0.90,-0.52,
3.785,-13.75,-21.28,-3.22,0.68,-0.94,-0.09,
3.785,-12.25,-20.97,-2.64,0.68,-0.94,-0.09,
3.786,-12.25,-20.97,-2.64,0.55,-0.94,0.27,
3.787,-10.80,-20.78,-2.18,0.55,-0.94,0.27,
3.787,-10.80,-20.78,-2.18,0.43,-0.93,0.57,
3.788,-9.56,-20.66,-1.85,0.43,-0.93,0.57,
3.789,-8.53,-20.51,-1.54,0.43,-0.93,0.57,
3.789,-8.53,-20.51,-1.54,0.31,-0.89,0.82,
3.79,-8.53,-20.51,-1.54,0.20,-0.81,1.03,
3.79,-7.75,-20.32,-1.25,0.20,-0.81,1.03,
3.79,-7.75,-20.32,-1.25,0.08,-0.71,1.19,
3.791,-7.18,-20.09,-0.88,0.08,-0.71,1.19,
3.792,-7.18,-20.09,-0.88,-0.03,-0.58,1.33,
3.792,-6.76,-19.87,-0.51,-0.03,-0.58,1.33,
3.793,-6.76,-19.87,-0.51,-0.13,-0.44,1.44,
3.793,-6.51,-19.59,-0.18,-0.13,-0.44,1.44,
3.794,-6.51,-19.59,-0.18,-0.23,-0.28,1.54,
3.794,-6.40,-19.38,0.08,-0.23,-0.28,1.54,
3.795,-6.40,-19.38,0.08,-0.31,-0.13,1.63,
3.795,-6.48,-19.31,0.17,-0.31,-0.13,1.63,
3.796,-6.48,-19.31,0.17,-0.40,0.03,1.70,
3.796,-6.84,-19.33,0.07,-0.40,0.03,1.70,
3.797,-6.84,-19.33,0.07,-0.49,0.20,1.79,
3.797,-7.63,-19.43,-0.28,-0.49,0.20,1.79,
3.81,-8.49,-19.58,-0.66,-0.49,0.20,1.79,
3.811,-8.49,-19.58,-0.66,-0.61,0.35,1.90,
3.811,-9.13,-19.79,-1.13,-0.61,0.35,1.90,
3.812,-9.13,-19.79,-1.13,-0.75,0.48,2.07,
3.812,-9.13,-19.79,-1.13,-0.93,0.60,2.30,
3.812,-9.46,-20.16,-1.53,-0.93,0.60,2.30,
3.849,-9.65,-20.53,-1.71,-0.93,0.60,2.30,
3.85,-9.65,-20.53,-1.71,-1.13,0.70,2.57,
3.85,-9.72,-20.89,-1.77,-1.13,0.70,2.57,
3.851,-9.72,-20.89,-1.77,-1.36,0.79,2.87,
3.851,-9.72,-20.89,-1.77,-1.60,0.85,3.21,
3.851,-9.67,-21.24,-1.61,-1.60,0.85,3.21,
3.852,-9.35,-21.54,-1.37,-1.60,0.85,3.21,
3.852,-9.35,-21.54,-1.37,-1.84,0.90,3.56,
3.852,-8.86,-21.89,-0.99,-1.84,0.90,3.56,
3.853,-8.86,-21.89,-0.99,-2.05,0.92,3.92,
3.853,-8.86,-21.89,-0.99,-2.24,0.91,4.29,
3.854,-8.25,-22.29,-0.55,-2.24,0.91,4.29,
3.854,-8.25,-22.29,-0.55,-2.39,0.87,4.66,
3.854,-7.57,-22.68,-0.13,-2.39,0.87,4.66,
3.855,-7.57,-22.68,-0.13,-2.51,0.82,5.01,
3.855,-6.81,-23.09,0.30,-2.51,0.82,5.01,
3.855,-5.92,-23.46,0.67,-2.51,0.82,5.01,
3.856,-5.92,-23.46,0.67,-2.59,0.74,5.35,
3.88,-5.92,-23.46,0.67,-2.64,0.65,5.67,
3.881,-4.95,-23.80,1.01,-2.64,0.65,5.67,
3.881,-4.95,-23.80,1.01,-2.66,0.55,5.97,
3.882,-3.87,-24.09,1.40,-2.66,0.55,5.97,
3.882,-2.77,-24.26,1.70,-2.66,0.55,5.97,
3.883,-2.77,-24.26,1.70,-2.64,0.45,6.24,
3.883,-2.77,-24.26,1.70,-2.60,0.35,6.49,
3.883,-1.91,-24.27,1.94,-2.60,0.35,6.49,
3.884,-1.91,-24.27,1.94,-2.53,0.26,6.71,
3.884,-0.83,-24.26,2.09,-2.53,0.26,6.71,
3.885,0.42,-24.27,2.10,-2.53,0.26,6.71,
3.885,0.42,-24.27,2.10,-2.45,0.18,6.91,
3.893,1.68,-24.23,2.02,-2.45,0.18,6.91,
3.895,1.68,-24.23,2.02,-2.35,0.10,7.06,
3.895,2.80,-24.20,1.74,-2.35,0.10,7.06,
3.896,2.80,-24.20,1.74,-2.24,0.03,7.17,
3.899,3.66,-24.19,1.41,-2.24,0.03,7.17,
3.9,3.66,-24.19,1.41,-2.13,-0.03,7.24,
3.922,3.66,-24.19,1.41,-2.04,-0.08,7.28,
3.923,4.28,-24.12,1.08,-2.04,-0.08,7.28,
3.924,4.28,-24.12,1.08,-1.97,-0.14,7.33,
3.924,4.69,-24.15,0.67,-1.97,-0.14,7.33,
3.925,5.08,-24.40,0.14,-1.97,-0.14,7.33,
3.925,5.08,-24.40,0.14,-1.92,-0.21,7.38,
3.926,5.55,-24.83,-0.31,-1.92,-0.21,7.38,
3.926,5.55,-24.83,-0.31,-1.91,-0.29,7.47,
3.926,5.55,-24.83,-0.31,-1.91,-0.37,7.59,
3.927,6.25,-25.32,-0.48,-1.91,-0.37,7.59,
3.929,6.25,-25.32,-0.48,-1.92,-0.47,7.72,
3.929,7.13,-25.81,-0.48,-1.92,-0.47,7.72,
3.934,7.13,-25.81,-0.48,-1.93,-0.60,7.86,
3.935,7.97,-26.21,-0.39,-1.93,-0.60,7.86,
3.939,8.76,-26.52,-0.28,-1.93,-0.60,7.86,
3.94,8.76,-26.52,-0.28,-1.92,-0.78,8.01,
3.944,9.56,-26.79,-0.17,-1.92,-0.78,8.01,
3.944,9.56,-26.79,-0.17,-1.90,-1.01,8.19,
3.948,10.34,-27.01,-0.02,-1.90,-1.01,8.19,
3.949,10.34,-27.01,-0.02,-1.88,-1.28,8.40,
3.966,11.26,-27.36,0.24,-1.88,-1.28,8.40,
3.968,11.26,-27.36,0.24,-1.85,-1.55,8.64,
3.969,12.56,-27.80,0.58,-1.85,-1.55,8.64,
3.969,12.56,-27.80,0.58,-1.82,-1.83,8.89,
3.97,14.06,-28.36,1.02,-1.82,-1.83,8.89,
3.971,14.06,-28.36,1.02,-1.78,-2.09,9.16,
3.972,15.74,-29.02,1.60,-1.78,-2.09,9.16,
3.973,15.74,-29.02,1.60,-1.72,-2.32,9.42,
3.974,17.54,-29.62,2.20,-1.72,-2.32,9.42,
3.975,17.54,-29.62,2.20,-1.64,-2.50,9.66,
4.009,19.23,-30.05,2.87,-1.64,-2.50,9.66,
4.01,19.23,-30.05,2.87,-1.54,-2.60,9.88,
4.01,20.70,-30.27,3.38,-1.54,-2.60,9.88,
4.011,20.70,-30.27,3.38,-1.43,-2.60,10.06,
4.048,20.70,-30.27,3.38,-1.31,-2.50,10.23,
4.048,22.22,-30.47,3.74,-1.31,-2.50,10.23,
4.049,22.22,-30.47,3.74,-1.21,-2.30,10.38,
4.049,23.51,-30.58,3.85,-1.21,-2.30,10.38,
4.05,24.40,-30.45,3.76,-1.21,-2.30,10.38,
4.051,24.40,-30.45,3.76,-1.14,-2.03,10.53,
4.052,24.40,-30.45,3.76,-1.14,-1.69,10.69,
4.052,25.11,-30.13,3.41,-1.14,-1.69,10.69,
4.053,25.11,-30.13,3.41,-1.22,-1.25,10.86,
4.053,25.75,-29.66,2.72,-1.22,-1.25,10.86,
4.054,26.52,-29.05,2.05,-1.22,-1.25,10.86,
4.055,26.52,-29.05,2.05,-1.41,-0.75,11.02,
4.056,27.57,-28.30,1.48,-1.41,-0.75,11.02,
4.056,27.57,-28.30,1.48,-1.73,-0.21,11.14,
4.057,28.87,-27.28,1.41,-1.73,-0.21,11.14,
4.057,28.87,-27.28,1.41,-2.17,0.35,11.15,
4.058,29.96,-26.14,2.00,-2.17,0.35,11.15,
4.058,29.96,-26.14,2.00,-2.69,0.94,11.02,
4.059,29.96,-26.14,2.00,-3.26,1.53,10.76,
4.059,30.69,-25.06,3.13,-3.26,1.53,10.76,
4.06,30.69,-25.06,3.13,-3.82,2.11,10.42,
4.06,30.88,-24.06,4.78,-3.82,2.11,10.42,
4.061,30.88,-24.06,4.78,-4.33,2.65,10.02,
4.062,30.69,-23.35,6.67,-4.33,2.65,10.02,
4.062,30.69,-23.35,6.67,-4.73,3.12,9.60,
4.062,29.99,-22.91,8.55,-4.73,3.12,9.60,
4.063,29.00,-22.63,10.52,-4.73,3.12,9.60,
4.064,29.00,-22.63,10.52,-5.01,3.48,9.19,
4.064,29.00,-22.63,10.52,-5.14,3.69,8.82,
4.064,27.87,-22.47,12.37,-5.14,3.69,8.82,
4.065,26.49,-22.59,13.77,-5.14,3.69,8.82,
4.066,26.49,-22.59,13.77,-5.11,3.78,8.52,
4.066,24.95,-22.62,14.97,-5.11,3.78,8.52,
4.066,24.95,-22.62,14.97,-4.95,3.72,8.31,
4.074,24.95,-22.62,14.97,-4.64,3.52,8.22,
4.075,24.04,-22.54,16.16,-4.64,3.52,8.22,
4.075,23.53,-21.97,17.07,-4.64,3.52,8.22,
4.076,23.53,-21.97,17.07,-4.18,3.21,8.20,
4.08,23.00,-20.97,17.67,-4.18,3.21,8.20,
4.081,23.00,-20.97,17.67,-3.56,2.77,8.22,
4.085,23.00,-20.97,17.67,-2.83,2.21,8.26,
4.086,22.43,-19.96,17.74,-2.83,2.21,8.26,
4.113,22.16,-19.03,17.23,-2.83,2.21,8.26,
4.115,22.16,-19.03,17.23,-2.03,1.56,8.33,
4.115,22.16,-19.03,17.23,-1.19,0.86,8.42,
4.115,22.25,-18.22,16.29,-1.19,0.86,8.42,
4.116,22.25,-18.22,16.29,-0.36,0.15,8.51,
4.116,22.99,-17.43,15.28,-0.36,0.15,8.51,
4.117,22.99,-17.43,15.28,0.43,-0.52,8.56,
4.117,24.12,-16.52,14.08,0.43,-0.52,8.56,
4.118,24.12,-16.52,14.08,1.17,-1.12,8.56,
4.118,25.39,-15.37,12.63,1.17,-1.12,8.56,
4.119,26.68,-13.90,10.98,1.17,-1.12,8.56,
4.119,26.68,-13.90,10.98,1.83,-1.63,8.48,
4.12,27.96,-12.18,9.21,1.83,-1.63,8.48,
4.121,27.96,-12.18,9.21,2.40,-2.05,8.32,
4.128,29.00,-10.41,7.35,2.40,-2.05,8.32,
4.129,29.00,-10.41,7.35,2.85,-2.36,8.08,
4.13,29.75,-8.52,5.47,2.85,-2.36,8.08,
4.13,29.75,-8.52,5.47,3.18,-2.56,7.77,
4.134,30.06,-6.60,3.61,3.18,-2.56,7.77,
4.135,30.06,-6.60,3.61,3.38,-2.64,7.39,
4.157,30.06,-6.60,3.61,3.44,-2.59,6.98,
4.158,30.02,-4.75,1.80,3.44,-2.59,6.98,
4.159,30.02,-4.75,1.80,3.35,-2.43,6.55,
4.159,29.78,-3.09,0.20,3.35,-2.43,6.55,
4.16,29.78,-3.09,0.20,3.15,-2.17,6.12,
4.16,29.31,-1.62,-1.13,3.15,-2.17,6.12,
4.16,28.84,-0.48,-2.04,3.15,-2.17,6.12,
4.161,28.84,-0.48,-2.04,2.83,-1.85,5.73,
4.161,28.84,-0.48,-2.04,2.45,-1.47,5.37,
4.162,28.43,0.50,-2.72,2.45,-1.47,5.37,
4.163,28.13,1.23,-3.14,2.45,-1.47,5.37,
4.164,28.13,1.23,-3.14,2.01,-1.04,5.05,
4.168,27.89,1.76,-3.25,2.01,-1.04,5.05,
4.169,27.89,1.76,-3.25,1.54,-0.57,4.76,
4.173,27.49,2.19,-3.19,1.54,-0.57,4.76,
4.174,27.49,2.19,-3.19,1.05,-0.09,4.49,
4.179,27.49,2.19,-3.19,0.57,0.41,4.24,
4.179,26.85,2.60,-2.96,0.57,0.41,4.24,
4.183,26.32,2.97,-2.59,0.57,0.41,4.24,
4.183,26.32,2.97,-2.59,0.10,0.91,4.01,
4.187,25.75,3.42,-2.08,0.10,0.91,4.01,
4.188,25.75,3.42,-2.08,-0.35,1.40,3.79,
4.196,25.28,3.69,-1.29,-0.35,1.40,3.79,
4.197,25.28,3.69,-1.29,-0.76,1.86,3.56,
4.198,25.28,3.69,-1.29,-1.13,2.27,3.32,
4.198,24.84,3.79,-0.44,-1.13,2.27,3.32,
4.202,24.84,3.79,-0.44,-1.42,2.62,3.09,
4.203,24.22,3.97,0.45,-1.42,2.62,3.09,
4.232,24.22,3.97,0.45,-1.65,2.89,2.88,
4.232,23.55,4.10,1.37,-1.65,2.89,2.88,
4.233,22.76,4.27,2.28,-1.65,2.89,2.88,
4.233,22.76,4.27,2.28,-1.80,3.10,2.69,
4.234,22.76,4.27,2.28,-1.87,3.25,2.52,
4.234,22.01,4.40,3.16,-1.87,3.25,2.52,
4.234,22.01,4.40,3.16,-1.88,3.34,2.37,
4.235,21.33,4.51,4.00,-1.88,3.34,2.37,
4.235,21.33,4.51,4.00,-1.82,3.36,2.23,
4.235,20.89,4.68,4.82,-1.82,3.36,2.23,
4.265,20.89,4.68,4.82,-1.70,3.31,2.09,
4.266,20.63,4.80,5.44,-1.70,3.31,2.09,
4.266,20.63,4.80,5.44,-1.53,3.20,1.96,
4.267,20.53,4.88,5.83,-1.53,3.20,1.96,
4.267,20.53,4.88,5.83,-1.32,3.03,1.83,
4.268,20.45,4.94,6.00,-1.32,3.03,1.83,
4.268,20.45,4.94,6.00,-1.09,2.84,1.69,
4.268,20.38,4.99,6.08,-1.09,2.84,1.69,
4.269,20.35,5.00,6.01,-1.09,2.84,1.69,
4.269,20.35,5.00,6.01,-0.85,2.64,1.55,
4.27,20.29,5.04,5.93,-0.85,2.64,1.55,
4.27,20.29,5.04,5.93,-0.62,2.43,1.41,
4.271,20.29,5.04,5.93,-0.40,2.22,1.27,
4.271,20.18,5.16,5.74,-0.40,2.22,1.27,
4.272,20.18,5.16,5.74,-0.20,2.03,1.14,
4.272,20.11,5.33,5.52,-0.20,2.03,1.14,
4.273,20.11,5.33,5.52,-0.01,1.84,1.02,
4.273,19.91,5.52,5.35,-0.01,1.84,1.02,
4.275,19.58,5.70,5.12,-0.01,1.84,1.02,
4.276,19.58,5.70,5.12,0.15,1.67,0.91,
4.28,19.19,5.84,4.84,0.15,1.67,0.91,
4.281,19.19,5.84,4.84,0.29,1.52,0.82,
4.285,18.81,5.91,4.56,0.29,1.52,0.82,
4.285,18.81,5.91,4.56,0.41,1.37,0.76,
4.29,18.81,5.91,4.56,0.51,1.22,0.73,
4.291,18.62,5.90,4.29,0.51,1.22,0.73,
4.295,18.59,5.86,4.22,0.51,1.22,0.73,
4.296,18.59,5.86,4.22,0.59,1.07,0.73,
4.3,18.80,5.79,4.27,0.59,1.07,0.73,
4.3,18.80,5.79,4.27,0.67,0.89,0.75,
4.311,19.27,5.72,4.44,0.67,0.89,0.75,
4.312,19.27,5.72,4.44,0.75,0.70,0.78,
4.312,20.05,5.67,4.62,0.75,0.70,0.78,
4.312,20.05,5.67,4.62,0.85,0.47,0.81,
4.314,20.91,5.68,4.78,0.85,0.47,0.81,
4.314,20.91,5.68,4.78,0.96,0.21,0.82,
4.32,20.91,5.68,4.78,1.09,-0.08,0.80,
4.321,21.88,5.71,4.89,1.09,-0.08,0.80,
4.342,21.88,5.71,4.89,1.23,-0.40,0.75,
4.343,22.82,5.83,4.90,1.23,-0.40,0.75,
4.343,22.82,5.83,4.90,1.38,-0.76,0.67,
4.344,23.67,6.04,4.86,1.38,-0.76,0.67,
4.344,24.55,6.40,4.80,1.38,-0.76,0.67,
4.345,24.55,6.40,4.80,1.53,-1.16,0.55,
4.345,24.55,6.40,4.80,1.67,-1.61,0.39,
4.345,25.46,6.82,4.64,1.67,-1.61,0.39,
4.346,25.46,6.82,4.64,1.79,-2.08,0.18,
4.346,26.34,7.28,4.45,1.79,-2.08,0.18,
4.349,26.34,7.28,4.45,1.89,-2.58,-0.09,
4.349,26.94,7.62,4.21,1.89,-2.58,-0.09,
4.353,26.94,7.62,4.21,1.96,-3.06,-0.40,
4.354,27.34,7.87,3.83,1.96,-3.06,-0.40,
4.358,27.34,7.87,3.83,1.97,-3.51,-0.77,
4.359,27.70,8.02,3.42,1.97,-3.51,-0.77,
4.363,27.70,8.02,3.42,1.93,-3.91,-1.18,
4.364,27.87,7.98,3.00,1.93,-3.91,-1.18,
4.368,27.87,7.98,3.00,1.82,-4.24,-1.65,
4.368,28.03,7.91,2.69,1.82,-4.24,-1.65,
4.373,28.03,7.91,2.69,1.66,-4.50,-2.16,
4.374,27.72,7.48,2.32,1.66,-4.50,-2.16,
4.378,27.72,7.48,2.32,1.43,-4.67,-2.68,
4.378,27.32,6.88,1.99,1.43,-4.67,-2.68,
4.383,26.73,6.05,1.73,1.43,-4.67,-2.68,
4.383,26.73,6.05,1.73,1.15,-4.77,-3.20,
4.387,26.15,4.98,1.88,1.15,-4.77,-3.20,
4.388,26.15,4.98,1.88,0.83,-4.79,-3.68,
4.393,25.63,3.74,2.52,0.83,-4.79,-3.68,
4.393,25.63,3.74,2.52,0.50,-4.71,-4.13,
4.397,25.63,3.74,2.52,0.19,-4.56,-4.54,
4.398,25.51,2.34,3.22,0.19,-4.56,-4.54,
4.402,25.51,2.34,3.22,-0.10,-4.35,-4.94,
4.403,25.49,0.75,3.43,-0.10,-4.35,-4.94,
4.414,25.32,-0.76,3.63,-0.10,-4.35,-4.94,
4.415,25.32,-0.76,3.63,-0.40,-4.12,-5.32,
4.416,25.04,-2.46,4.11,-0.40,-4.12,-5.32,
4.416,25.04,-2.46,4.11,-0.70,-3.86,-5.70,
4.417,25.04,-2.46,4.11,-0.99,-3.54,-6.07,
4.417,24.46,-4.25,4.91,-0.99,-3.54,-6.07,
4.446,23.90,-6.05,5.76,-0.99,-3.54,-6.07,
4.447,23.90,-6.05,5.76,-1.24,-3.19,-6.42,
4.447,23.90,-6.05,5.76,-1.44,-2.84,-6.74,
4.447,23.52,-7.88,6.44,-1.44,-2.84,-6.74,
4.448,23.52,-7.88,6.44,-1.61,-2.49,-7.04,
4.448,23.17,-9.69,7.06,-1.61,-2.49,-7.04,
4.449,22.70,-11.37,7.57,-1.61,-2.49,-7.04,
4.449,22.70,-11.37,7.57,-1.74,-2.14,-7.34,
4.45,22.06,-12.92,8.07,-1.74,-2.14,-7.34,
4.45,22.06,-12.92,8.07,-1.83,-1.79,-7.61,
4.451,22.06,-12.92,8.07,-1.88,-1.44,-7.86,
4.451,21.33,-14.30,8.51,-1.88,-1.44,-7.86,
4.452,21.33,-14.30,8.51,-1.90,-1.09,-8.08,
4.452,20.60,-15.46,8.75,-1.90,-1.09,-8.08,
4.457,20.60,-15.46,8.75,-1.90,-0.79,-8.26,
4.458,20.07,-16.55,8.70,-1.90,-0.79,-8.26,
4.461,20.07,-16.55,8.70,-1.89,-0.51,-8.42,
4.461,19.82,-17.69,8.47,-1.89,-0.51,-8.42,
4.466,19.55,-18.91,8.26,-1.89,-0.51,-8.42,
4.466,19.55,-18.91,8.26,-1.88,-0.25,-8.54,
4.471,19.55,-18.91,8.26,-1.86,-0.00,-8.65,
4.472,19.30,-20.14,8.08,-1.86,-0.00,-8.65,
4.503,19.05,-21.26,7.92,-1.86,-0.00,-8.65,
4.504,19.05,-21.26,7.92,-1.86,0.27,-8.73,
4.505,19.05,-21.26,7.92,-1.86,0.55,-8.80,
4.505,18.81,-22.19,7.72,-1.86,0.55,-8.80,
4.506,18.81,-22.19,7.72,-1.86,0.83,-8.85,
4.506,18.49,-23.01,7.65,-1.86,0.83,-8.85,
4.507,18.06,-23.76,7.66,-1.86,0.83,-8.85,
4.508,18.06,-23.76,7.66,-1.86,1.13,-8.87,
4.508,17.55,-24.39,7.67,-1.86,1.13,-8.87,
4.509,17.55,-24.39,7.67,-1.83,1.45,-8.86,
4.509,17.17,-24.95,7.63,-1.83,1.45,-8.86,
4.51,17.17,-24.95,7.63,-1.79,1.79,-8.83,
4.51,17.17,-24.95,7.63,-1.72,2.15,-8.79,
4.511,17.01,-25.59,7.50,-1.72,2.15,-8.79,
4.511,17.04,-26.42,7.38,-1.72,2.15,-8.79,
4.512,17.04,-26.42,7.38,-1.62,2.49,-8.73,
4.514,17.10,-27.27,7.15,-1.62,2.49,-8.73,
4.515,17.10,-27.27,7.15,-1.51,2.82,-8.65,
4.519,16.98,-27.98,7.01,-1.51,2.82,-8.65,
4.52,16.98,-27.98,7.01,-1.38,3.17,-8.56,
4.529,16.73,-28.42,6.86,-1.38,3.17,-8.56,
4.53,16.73,-28.42,6.86,-1.24,3.55,-8.43,
4.53,16.42,-28.60,6.57,-1.24,3.55,-8.43,
4.531,16.42,-28.60,6.57,-1.07,3.94,-8.31,
4.534,16.17,-28.67,6.07,-1.07,3.94,-8.31,
4.534,16.17,-28.67,6.07,-0.87,4.32,-8.16,
4.558,16.17,-28.67,6.07,-0.66,4.70,-8.01,
4.559,16.09,-28.83,5.41,-0.66,4.70,-8.01,
4.56,16.09,-28.83,5.41,-0.44,5.05,-7.87,
4.56,16.10,-29.21,4.61,-0.44,5.05,-7.87,
4.561,16.06,-29.68,3.73,-0.44,5.05,-7.87,
4.561,16.06,-29.68,3.73,-0.23,5.37,-7.73,
4.562,15.72,-30.10,2.94,-0.23,5.37,-7.73,
4.562,15.72,-30.10,2.94,-0.03,5.67,-7.61,
4.563,15.10,-30.29,2.24,-0.03,5.67,-7.61,
4.563,15.10,-30.29,2.24,0.15,5.91,-7.49,
4.564,14.32,-30.33,1.69,0.15,5.91,-7.49,
4.564,14.32,-30.33,1.69,0.31,6.10,-7.37,
4.568,13.55,-30.35,1.39,0.31,6.10,-7.37,
4.569,13.55,-30.35,1.39,0.47,6.22,-7.25,
4.573,13.55,-30.35,1.39,0.65,6.27,-7.12,
4.574,12.85,-30.45,1.24,0.65,6.27,-7.12,
4.578,12.23,-30.60,1.30,0.65,6.27,-7.12,
4.579,12.23,-30.60,1.30,0.88,6.24,-6.97,
4.583,11.66,-30.82,1.36,0.88,6.24,-6.97,
4.583,11.66,-30.82,1.36,1.15,6.14,-6.80,
4.587,11.08,-30.99,1.43,1.15,6.14,-6.80,
4.588,11.08,-30.99,1.43,1.47,5.99,-6.61,
4.593,11.08,-30.99,1.43,1.84,5.79,-6.40,
4.593,10.46,-31.04,1.37,1.84,5.79,-6.40,
4.597,10.46,-31.04,1.37,2.25,5.55,-6.16,
4.598,9.81,-30.88,1.23,2.25,5.55,-6.16,
4.602,9.13,-30.55,0.95,2.25,5.55,-6.16,
4.602,9.13,-30.55,0.95,2.69,5.26,-5.93,
4.618,8.53,-30.16,0.45,2.69,5.26,-5.93,
4.619,8.53,-30.16,0.45,3.13,4.94,-5.69,
4.62,8.04,-29.73,-0.09,3.13,4.94,-5.69,
4.621,8.04,-29.73,-0.09,3.57,4.59,-5.47,
4.621,7.60,-29.24,-0.70,3.57,4.59,-5.47,
4.623,7.60,-29.24,-0.70,4.00,4.22,-5.27,
4.623,7.19,-28.75,-1.28,4.00,4.22,-5.27,
4.625,7.19,-28.75,-1.28,4.40,3.82,-5.11,
4.667,6.73,-28.37,-1.92,4.40,3.82,-5.11,
4.668,6.73,-28.37,-1.92,4.78,3.38,-4.98,
4.669,6.73,-28.37,-1.92,5.12,2.94,-4.88,
4.669,6.28,-27.96,-2.54,5.12,2.94,-4.88,
4.67,6.28,-27.96,-2.54,5.42,2.49,-4.81,
4.67,5.79,-27.60,-3.12,5.42,2.49,-4.81,
4.671,5.19,-27.18,-3.66,5.42,2.49,-4.81,
4.671,5.19,-27.18,-3.66,5.68,2.04,-4.76,
4.672,5.19,-27.18,-3.66,5.91,1.60,-4.73,
4.672,4.59,-26.70,-4.07,5.91,1.60,-4.73,
4.673,4.59,-26.70,-4.07,6.09,1.18,-4.72,
4.673,3.96,-26.18,-4.44,6.09,1.18,-4.72,
4.674,3.96,-26.18,-4.44,6.24,0.76,-4.72,
4.674,3.40,-25.76,-4.72,6.24,0.76,-4.72,
4.675,3.40,-25.76,-4.72,6.36,0.35,-4.72,
4.675,2.82,-25.46,-4.93,6.36,0.35,-4.72,
4.676,2.82,-25.46,-4.93,6.46,-0.05,-4.73,
4.676,2.08,-25.08,-5.11,6.46,-0.05,-4.73,
4.676,2.08,-25.08,-5.11,6.53,-0.43,-4.75,
4.677,1.16,-24.54,-5.19,6.53,-0.43,-4.75,
4.677,1.16,-24.54,-5.19,6.57,-0.79,-4.76,
4.678,0.37,-23.90,-5.30,6.57,-0.79,-4.76,
4.68,0.37,-23.90,-5.30,6.57,-1.12,-4.77,
4.681,-0.19,-23.29,-5.51,6.57,-1.12,-4.77,
4.685,-0.58,-22.89,-5.83,6.57,-1.12,-4.77,
4.686,-0.58,-22.89,-5.83,6.53,-1.42,-4.79,
4.696,-0.85,-22.72,-6.12,6.53,-1.42,-4.79,
4.697,-0.85,-22.72,-6.12,6.44,-1.67,-4.81,
4.698,-0.85,-22.72,-6.12,6.31,-1.84,-4.83,
4.698,-1.20,-22.63,-6.51,6.31,-1.84,-4.83,
4.7,-1.20,-22.63,-6.51,6.12,-1.94,-4.84,
4.7,-1.73,-22.54,-6.90,6.12,-1.94,-4.84,
4.704,-1.73,-22.54,-6.90,5.88,-1.98,-4.82,
4.705,-2.40,-22.45,-7.29,5.88,-1.98,-4.82,
4.729,-2.40,-22.45,-7.29,5.59,-1.95,-4.77,
4.73,-3.11,-22.32,-7.59,5.59,-1.95,-4.77,
4.731,-3.11,-22.32,-7.59,5.26,-1.88,-4.68,
4.731,-3.71,-22.02,-7.80,5.26,-1.88,-4.68,
4.762,-3.71,-22.02,-7.80,4.90,-1.77,-4.58,
4.762,-4.14,-21.66,-7.78,4.90,-1.77,-4.58,
4.763,-4.14,-21.66,-7.78,4.53,-1.63,-4.47,
4.763,-4.51,-21.31,-7.63,4.53,-1.63,-4.47,
4.764,-4.51,-21.31,-7.63,4.16,-1.46,-4.36,
4.764,-4.80,-21.03,-7.42,4.16,-1.46,-4.36,
4.765,-4.80,-21.03,-7.42,3.80,-1.29,-4.25,
4.765,-4.96,-20.93,-7.10,3.80,-1.29,-4.25,
4.766,-4.96,-20.93,-7.10,3.45,-1.12,-4.14,
4.766,-5.14,-20.93,-6.80,3.45,-1.12,-4.14,
4.767,-5.14,-20.93,-6.80,3.14,-0.94,-4.03,
4.767,-5.38,-20.92,-6.49,3.14,-0.94,-4.03,
4.768,-5.63,-21.02,-6.25,3.14,-0.94,-4.03,
4.768,-5.63,-21.02,-6.25,2.84,-0.76,-3.92,
4.769,-5.98,-21.10,-6.01,2.84,-0.76,-3.92,
4.769,-5.98,-21.10,-6.01,2.58,-0.56,-3.80,
4.77,-5.98,-21.10,-6.01,2.33,-0.37,-3.69,
4.77,-6.37,-21.07,-5.78,2.33,-0.37,-3.69,
4.771,-6.37,-21.07,-5.78,2.12,-0.18,-3.58,
4.773,-6.82,-21.05,-5.49,2.12,-0.18,-3.58,
4.774,-6.82,-21.05,-5.49,1.94,-0.02,-3.47,
4.774,-7.50,-21.07,-5.17,1.94,-0.02,-3.47,
4.775,-7.50,-21.07,-5.17,1.79,0.12,-3.34,
4.775,-8.27,-21.12,-4.84,1.79,0.12,-3.34,
4.778,-9.08,-21.08,-4.48,1.79,0.12,-3.34,
4.778,-9.08,-21.08,-4.48,1.70,0.20,-3.20,
4.783,-9.87,-21.01,-4.09,1.70,0.20,-3.20,
4.783,-9.87,-21.01,-4.09,1.66,0.23,-3.04,
4.788,-10.75,-20.90,-3.68,1.66,0.23,-3.04,
4.788,-10.75,-20.90,-3.68,1.67,0.20,-2.84,
4.797,-11.52,-20.76,-3.36,1.67,0.20,-2.84,
4.798,-11.52,-20.76,-3.36,1.74,0.12,-2.62,
4.798,-12.22,-20.60,-3.23,1.74,0.12,-2.62,
4.799,-12.22,-20.60,-3.23,1.84,-0.01,-2.38,
4.802,-12.57,-20.44,-3.18,1.84,-0.01,-2.38,
4.802,-12.57,-20.44,-3.18,1.97,-0.19,-2.11,
4.825,-12.57,-20.44,-3.18,2.12,-0.40,-1.82,
4.826,-12.62,-20.35,-3.32,2.12,-0.40,-1.82,
4.827,-12.62,-20.35,-3.32,2.27,-0.60,-1.54,
4.827,-12.37,-20.32,-3.50,2.27,-0.60,-1.54,
4.828,-12.37,-20.32,-3.50,2.40,-0.76,-1.28,
4.828,-11.97,-20.29,-3.83,2.40,-0.76,-1.28,
4.829,-11.51,-20.23,-4.27,2.40,-0.76,-1.28,
4.829,-11.51,-20.23,-4.27,2.50,-0.90,-1.04,
4.829,-11.10,-20.08,-4.76,2.50,-0.90,-1.04,
4.83,-11.10,-20.08,-4.76,2.56,-0.98,-0.82,
4.831,-10.75,-19.98,-5.37,2.56,-0.98,-0.82,
4.832,-10.75,-19.98,-5.37,2.56,-1.02,-0.64,
4.836,-10.75,-19.98,-5.37,2.50,-1.00,-0.50,
4.837,-10.62,-19.80,-6.01,2.50,-1.00,-0.50,
4.841,-10.62,-19.80,-6.01,2.36,-0.94,-0.36,
4.841,-10.75,-19.69,-6.85,2.36,-0.94,-0.36,
4.846,-10.75,-19.69,-6.85,2.12,-0.83,-0.21,
4.846,-11.00,-19.53,-7.75,2.12,-0.83,-0.21,
4.851,-11.00,-19.53,-7.75,1.78,-0.69,-0.04,
4.851,-11.23,-19.35,-8.63,1.78,-0.69,-0.04,
4.856,-11.23,-19.35,-8.63,1.35,-0.50,0.16,
4.856,-11.51,-19.15,-9.28,1.35,-0.50,0.16,
4.865,-11.87,-19.00,-9.66,1.35,-0.50,0.16,
4.866,-11.87,-19.00,-9.66,0.84,-0.28,0.37,
4.866,-12.18,-18.77,-9.72,0.84,-0.28,0.37,
4.867,-12.18,-18.77,-9.72,0.27,-0.05,0.61,
4.87,-12.18,-18.77,-9.72,-0.32,0.20,0.86,
4.871,-12.36,-18.49,-9.47,-0.32,0.20,0.86,
4.896,-12.36,-18.49,-9.47,-0.93,0.43,1.12,
4.897,-12.46,-18.16,-8.87,-0.93,0.43,1.12,
4.897,-12.52,-17.88,-7.93,-0.93,0.43,1.12,
4.898,-12.52,-17.88,-7.93,-1.50,0.64,1.38,
4.898,-12.52,-17.88,-7.93,-2.02,0.82,1.63,
4.899,-12.60,-17.79,-6.93,-2.02,0.82,1.63,
4.899,-12.60,-17.79,-6.93,-2.48,0.94,1.89,
4.9,-12.68,-17.81,-5.98,-2.48,0.94,1.89,
4.9,-12.68,-17.94,-5.09,-2.48,0.94,1.89,
4.901,-12.68,-17.94,-5.09,-2.88,1.01,2.16,
4.901,-12.52,-18.08,-4.29,-2.88,1.01,2.16,
4.902,-12.52,-18.08,-4.29,-3.20,1.00,2.44,
4.905,-12.52,-18.08,-4.29,-3.47,0.94,2.72,
4.905,-12.17,-18.23,-3.40,-3.47,0.94,2.72,
4.91,-11.65,-18.34,-2.49,-3.47,0.94,2.72,
4.911,-11.65,-18.34,-2.49,-3.68,0.81,2.99,
4.914,-10.97,-18.42,-1.43,-3.68,0.81,2.99,
4.915,-10.97,-18.42,-1.43,-3.82,0.63,3.26,
4.919,-10.11,-18.48,-0.34,-3.82,0.63,3.26,
4.92,-10.11,-18.48,-0.34,-3.89,0.42,3.51,
4.924,-9.20,-18.56,0.73,-3.89,0.42,3.51,
4.925,-9.20,-18.56,0.73,-3.89,0.17,3.74,
4.929,-8.33,-18.60,1.65,-3.89,0.17,3.74,
4.93,-8.33,-18.60,1.65,-3.82,-0.10,3.96,
4.934,-8.33,-18.60,1.65,-3.68,-0.38,4.16,
4.934,-7.76,-18.56,2.36,-3.68,-0.38,4.16,
4.939,-7.76,-18.56,2.36,-3.50,-0.68,4.37,
4.939,-7.01,-18.59,2.96,-3.50,-0.68,4.37,
4.949,-7.01,-18.59,2.96,-3.28,-0.94,4.57,
4.95,-6.11,-18.65,3.39,-3.28,-0.94,4.57,
4.95,-5.14,-18.71,3.69,-3.28,-0.94,4.57,
4.951,-5.14,-18.71,3.69,-3.02,-1.17,4.73,
4.953,-5.14,-18.71,3.69,-2.74,-1.36,4.85,
4.954,-4.25,-18.71,3.81,-2.74,-1.36,4.85,
4.995,-4.25,-18.71,3.81,-2.45,-1.52,4.95,
4.996,-3.62,-18.65,3.74,-2.45,-1.52,4.95,
5.033,-3.62,-18.65,3.74,-2.16,-1.63,5.02,
5.034,-3.19,-18.61,3.58,-2.16,-1.63,5.02,
5.034,-3.19,-18.61,3.58,-1.90,-1.72,5.11,
5.035,-2.99,-18.57,3.27,-1.90,-1.72,5.11,
5.035,-2.87,-18.50,2.89,-1.90,-1.72,5.11,
5.036,-2.87,-18.50,2.89,-1.66,-1.78,5.21,
5.036,-2.65,-18.46,2.50,-1.66,-1.78,5.21,
5.037,-2.65,-18.46,2.50,-1.46,-1.81,5.34,
5.037,-2.31,-18.50,2.04,-1.46,-1.81,5.34,
5.038,-2.31,-18.50,2.04,-1.30,-1.81,5.47,
5.038,-1.83,-18.66,1.46,-1.30,-1.81,5.47,
5.039,-1.83,-18.66,1.46,-1.19,-1.80,5.62,
5.039,-1.83,-18.66,1.46,-1.13,-1.76,5.77,
5.04,-1.34,-18.86,0.88,-1.13,-1.76,5.77,
5.04,-0.78,-19.16,0.34,-1.13,-1.76,5.77,
5.041,-0.78,-19.16,0.34,-1.11,-1.71,5.91,
5.042,-0.18,-19.52,-0.16,-1.11,-1.71,5.91,
5.042,-0.18,-19.52,-0.16,-1.14,-1.64,6.06,
5.045,-0.18,-19.52,-0.16,-1.22,-1.56,6.21,
5.045,0.47,-19.98,-0.63,-1.22,-1.56,6.21,
5.046,0.47,-19.98,-0.63,-1.33,-1.47,6.37,
5.046,1.18,-20.50,-1.08,-1.33,-1.47,6.37,
5.047,1.94,-21.07,-1.42,-1.33,-1.47,6.37,
5.047,1.94,-21.07,-1.42,-1.49,-1.38,6.52,
5.047,1.94,-21.07,-1.42,-1.68,-1.29,6.69,
5.048,2.68,-21.60,-1.65,-1.68,-1.29,6.69,
5.048,3.43,-22.11,-1.75,-1.68,-1.29,6.69,
5.048,3.43,-22.11,-1.75,-1.89,-1.20,6.86,
5.049,4.17,-22.61,-1.77,-1.89,-1.20,6.86,
5.049,4.17,-22.61,-1.77,-2.13,-1.11,7.04,
5.05,4.17,-22.61,-1.77,-2.39,-1.04,7.23,
5.05,5.04,-23.12,-1.70,-2.39,-1.04,7.23,
5.051,6.01,-23.62,-1.48,-2.39,-1.04,7.23,
5.051,6.01,-23.62,-1.48,-2.64,-0.99,7.40,
5.051,7.03,-24.04,-1.12,-2.64,-0.99,7.40,
5.052,7.03,-24.04,-1.12,-2.89,-0.97,7.56,
5.052,8.06,-24.39,-0.64,-2.89,-0.97,7.56,
5.052,8.06,-24.39,-0.64,-3.11,-0.99,7.70,
5.059,9.13,-24.64,-0.11,-3.11,-0.99,7.70,
5.06,9.13,-24.64,-0.11,-3.32,-1.06,7.83,
5.061,10.39,-24.88,0.41,-3.32,-1.06,7.83,
5.062,10.39,-24.88,0.41,-3.50,-1.18,7.94,
5.066,10.39,-24.88,0.41,-3.65,-1.35,8.04,
5.067,11.76,-25.11,0.97,-3.65,-1.35,8.04,
5.07,13.18,-25.35,1.60,-3.65,-1.35,8.04,
5.071,13.18,-25.35,1.60,-3.77,-1.56,8.12,
5.095,14.65,-25.56,2.39,-3.77,-1.56,8.12,
5.096,14.65,-25.56,2.39,-3.86,-1.77,8.19,
5.096,16.06,-25.77,3.16,-3.86,-1.77,8.19,
5.097,16.06,-25.77,3.16,-3.90,-1.97,8.26,
5.097,17.45,-25.91,4.00,-3.90,-1.97,8.26,
5.098,17.45,-25.91,4.00,-3.90,-2.15,8.31,
5.098,18.64,-25.92,4.80,-3.90,-2.15,8.31,
5.099,18.64,-25.92,4.80,-3.87,-2.28,8.37,
5.099,19.67,-25.79,5.38,-3.87,-2.28,8.37,
5.1,19.67,-25.79,5.38,-3.79,-2.34,8.43,
5.1,20.51,-25.46,5.77,-3.79,-2.34,8.43,
5.1,20.51,-25.46,5.77,-3.70,-2.32,8.48,
5.125,20.51,-25.46,5.77,-3.61,-2.22,8.53,
5.126,21.21,-24.99,5.94,-3.61,-2.22,8.53,
5.128,21.21,-24.99,5.94,-3.54,-2.05,8.54,
5.128,21.84,-24.51,6.00,-3.54,-2.05,8.54,
5.129,21.84,-24.51,6.00,-3.50,-1.83,8.53,
5.129,22.52,-24.00,6.11,-3.50,-1.83,8.53,
5.13,22.52,-24.00,6.11,-3.48,-1.58,8.46,
5.13,23.32,-23.44,6.61,-3.48,-1.58,8.46,
5.131,24.08,-22.79,7.46,-3.48,-1.58,8.46,
5.131,24.08,-22.79,7.46,-3.46,-1.31,8.33,
5.132,24.08,-22.79,7.46,-3.40,-1.04,8.15,
5.132,24.60,-22.05,8.58,-3.40,-1.04,8.15,
5.134,24.60,-22.05,8.58,-3.29,-0.80,7.95,
5.135,24.80,-21.24,9.79,-3.29,-0.80,7.95,
5.138,24.80,-21.24,9.79,-3.08,-0.60,7.73,
5.139,24.75,-20.53,10.83,-3.08,-0.60,7.73,
5.156,24.75,-20.53,10.83,-2.80,-0.44,7.54,
5.158,24.50,-20.02,11.63,-2.80,-0.44,7.54,
5.159,24.50,-20.02,11.63,-2.44,-0.34,7.39,
5.16,24.09,-19.54,12.14,-2.44,-0.34,7.39,
5.16,24.09,-19.54,12.14,-2.02,-0.28,7.27,
5.161,23.63,-19.09,12.44,-2.02,-0.28,7.27,
5.161,23.63,-19.09,12.44,-1.57,-0.27,7.21,
5.162,23.12,-18.64,12.53,-1.57,-0.27,7.21,
5.163,22.78,-18.07,12.58,-1.57,-0.27,7.21,
5.163,22.78,-18.07,12.58,-1.09,-0.30,7.19,
5.168,22.78,-18.07,12.58,-0.57,-0.37,7.21,
5.168,22.44,-17.33,12.64,-0.57,-0.37,7.21,
5.173,22.44,-17.33,12.64,-0.02,-0.47,7.26,
5.173,22.55,-16.71,12.53,-0.02,-0.47,7.26,
5.178,22.55,-16.71,12.53,0.56,-0.60,7.32,
5.179,22.46,-15.93,12.26,0.56,-0.60,7.32,
5.183,22.46,-15.93,12.26,1.16,-0.76,7.38,
5.183,22.28,-15.11,11.80,1.16,-0.76,7.38,
5.188,22.28,-15.11,11.80,1.77,-0.97,7.46,
5.188,22.33,-14.28,11.12,1.77,-0.97,7.46,
5.198,22.79,-13.43,10.32,1.77,-0.97,7.46,
5.199,22.79,-13.43,10.32,2.36,-1.18,7.54,
5.2,23.55,-12.65,9.46,2.36,-1.18,7.54,
5.2,23.55,-12.65,9.46,2.93,-1.38,7.59,
5.202,23.55,-12.65,9.46,3.49,-1.57,7.59,
5.202,24.53,-11.85,8.55,3.49,-1.57,7.59,
5.243,24.53,-11.85,8.55,4.02,-1.75,7.55,
5.243,25.53,-10.96,7.48,4.02,-1.75,7.55,
5.244,25.53,-10.96,7.48,4.53,-1.90,7.46,
5.244,26.54,-9.94,6.27,4.53,-1.90,7.46,
5.245,26.54,-9.94,6.27,4.99,-2.02,7.32,
5.245,27.37,-8.86,4.83,4.99,-2.02,7.32,
5.246,27.37,-8.86,4.83,5.39,-2.09,7.13,
5.246,27.88,-7.64,3.19,5.39,-2.09,7.13,
5.247,28.06,-6.38,1.37,5.39,-2.09,7.13,
5.248,28.06,-6.38,1.37,5.71,-2.09,6.90,
5.249,28.15,-5.10,-0.60,5.71,-2.09,6.90,
5.249,28.15,-5.10,-0.60,5.92,-2.02,6.64,
5.249,28.24,-3.93,-2.59,5.92,-2.02,6.64,
5.25,28.24,-3.93,-2.59,6.02,-1.90,6.34,
5.25,28.24,-3.93,-2.59,5.98,-1.71,6.02,
5.25,28.27,-2.70,-4.53,5.98,-1.71,6.02,
5.251,28.35,-1.42,-6.33,5.98,-1.71,6.02,
5.251,28.35,-1.42,-6.33,5.82,-1.47,5.69,
5.252,28.34,-0.14,-7.97,5.82,-1.47,5.69,
5.252,28.34,-0.14,-7.97,5.55,-1.17,5.34,
5.256,28.34,-0.14,-7.97,5.16,-0.84,4.97,
5.257,28.18,1.10,-9.39,5.16,-0.84,4.97,
5.265,27.85,2.24,-10.56,5.16,-0.84,4.97,
5.266,27.85,2.24,-10.56,4.70,-0.49,4.59,
5.266,27.85,2.24,-10.56,4.17,-0.13,4.22,
5.267,27.40,3.30,-11.47,4.17,-0.13,4.22,
5.271,27.40,3.30,-11.47,3.61,0.23,3.86,
5.271,26.93,4.29,-12.15,3.61,0.23,3.86,
5.276,26.93,4.29,-12.15,3.02,0.60,3.53,
5.277,26.48,5.20,-12.64,3.02,0.60,3.53,
5.28,26.48,5.20,-12.64,2.41,0.96,3.22,
5.281,26.02,5.97,-12.95,2.41,0.96,3.22,
5.285,26.02,5.97,-12.95,1.82,1.31,2.94,
5.285,25.59,6.64,-13.07,1.82,1.31,2.94,
5.29,25.59,6.64,-13.07,1.23,1.65,2.68,
5.29,25.18,7.15,-12.98,1.23,1.65,2.68,
5.301,25.18,7.15,-12.98,0.65,1.98,2.43,
5.301,24.83,7.55,-12.73,0.65,1.98,2.43,
5.302,24.83,7.55,-12.73,0.10,2.27,2.18,
5.303,25.65,8.16,-12.77,0.10,2.27,2.18,
5.308,24.83,8.35,-12.23,0.10,2.27,2.18,
5.309,24.83,8.35,-12.23,-0.46,2.52,1.89,
5.309,23.81,8.53,-11.30,-0.46,2.52,1.89,
5.31,23.81,8.53,-11.30,-0.99,2.75,1.61,
5.344,23.81,8.53,-11.30,-1.47,2.97,1.35,
5.345,22.74,8.72,-10.18,-1.47,2.97,1.35,
5.345,22.74,8.72,-10.18,-1.88,3.16,1.14,
5.345,21.66,8.82,-9.03,-1.88,3.16,1.14,
5.346,21.66,8.82,-9.03,-2.25,3.32,0.96,
5.346,20.65,8.79,-7.62,-2.25,3.32,0.96,
5.347,20.02,8.69,-6.20,-2.25,3.32,0.96,
5.347,20.02,8.69,-6.20,-2.55,3.47,0.81,
5.348,19.58,8.66,-4.88,-2.55,3.47,0.81,
5.348,19.58,8.66,-4.88,-2.79,3.58,0.69,
5.349,19.51,8.67,-3.50,-2.79,3.58,0.69,
5.349,19.51,8.67,-3.50,-2.97,3.65,0.59,
5.349,19.60,8.64,-2.21,-2.97,3.65,0.59,
5.35,19.60,8.64,-2.21,-3.07,3.69,0.49,
5.35,19.59,8.68,-0.86,-3.07,3.69,0.49,
5.35,19.59,8.68,-0.86,-3.11,3.70,0.38,
5.353,19.29,8.74,0.49,-3.11,3.70,0.38,
5.354,19.29,8.74,0.49,-3.06,3.70,0.26,
5.359,18.79,8.70,1.77,-3.06,3.70,0.26,
5.36,18.79,8.70,1.77,-2.93,3.70,0.16,
5.363,18.79,8.70,1.77,-2.73,3.67,0.08,
5.364,18.35,8.64,2.69,-2.73,3.67,0.08,
5.368,18.35,8.64,2.69,-2.47,3.61,0.03,
5.369,18.07,8.53,3.31,-2.47,3.61,0.03,
5.373,18.07,8.53,3.31,-2.17,3.47,0.01,
5.374,18.04,8.30,3.56,-2.17,3.47,0.01,
5.378,18.04,8.30,3.56,-1.85,3.28,0.01,
5.379,18.17,8.03,3.69,-1.85,3.28,0.01,
5.383,18.29,7.83,3.82,-1.85,3.28,0.01,
5.383,18.29,7.83,3.82,-1.50,3.02,0.05,
5.388,18.65,7.86,4.00,-1.50,3.02,0.05,
5.388,18.65,7.86,4.00,-1.14,2.72,0.09,
5.401,18.65,7.86,4.00,-0.76,2.38,0.14,
5.402,19.22,8.04,4.07,-0.76,2.38,0.14,
5.403,19.85,8.34,4.16,-0.76,2.38,0.14,
5.403,19.85,8.34,4.16,-0.37,2.00,0.17,
5.404,19.85,8.34,4.16,0.03,1.58,0.17,
5.404,20.36,8.73,4.14,0.03,1.58,0.17,
5.407,20.81,9.11,3.93,0.03,1.58,0.17,
5.408,20.81,9.11,3.93,0.43,1.13,0.12,
5.446,21.00,9.43,3.42,0.43,1.13,0.12,
5.447,21.00,9.43,3.42,0.80,0.64,0.01,
5.448,21.00,9.43,3.42,1.11,0.12,-0.14,
5.448,21.02,9.75,2.72,1.11,0.12,-0.14,
5.449,21.02,9.75,2.72,1.34,-0.43,-0.34,
5.449,20.97,10.07,1.79,1.34,-0.43,-0.34,
5.45,20.97,10.40,0.84,1.34,-0.43,-0.34,
5.45,20.97,10.40,0.84,1.47,-1.00,-0.58,
5.451,20.97,10.40,0.84,1.51,-1.55,-0.85,
5.451,21.01,10.66,0.07,1.51,-1.55,-0.85,
5.452,20.99,10.77,-0.48,1.51,-1.55,-0.85,
5.453,20.99,10.77,-0.48,1.46,-2.06,-1.15,
5.453,20.99,10.77,-0.48,1.33,-2.52,-1.47,
5.454,20.95,10.75,-0.76,1.33,-2.52,-1.47,
5.454,20.95,10.75,-0.76,1.15,-2.89,-1.79,
5.455,20.93,10.50,-0.72,1.15,-2.89,-1.79,
5.494,21.19,9.99,-0.42,1.15,-2.89,-1.79,
5.495,21.19,9.99,-0.42,0.95,-3.18,-2.10,
5.495,21.19,9.99,-0.42,0.74,-3.40,-2.41,
5.496,21.57,9.24,-0.03,0.74,-3.40,-2.41,
5.496,22.01,8.30,0.33,0.74,-3.40,-2.41,
5.497,22.01,8.30,0.33,0.53,-3.55,-2.71,
5.497,22.43,7.28,0.58,0.53,-3.55,-2.71,
5.498,22.43,7.28,0.58,0.32,-3.66,-3.03,
5.498,22.71,6.20,0.93,0.32,-3.66,-3.03,
5.499,22.71,6.20,0.93,0.10,-3.70,-3.35,
5.499,23.02,5.05,1.28,0.10,-3.70,-3.35,
5.5,23.02,5.05,1.28,-0.13,-3.68,-3.68,
5.5,23.02,5.05,1.28,-0.35,-3.57,-4.03,
5.501,23.26,3.85,1.51,-0.35,-3.57,-4.03,
5.501,23.26,3.85,1.51,-0.58,-3.41,-4.36,
5.502,23.43,2.43,1.63,-0.58,-3.41,-4.36,
5.503,23.43,2.43,1.63,-0.81,-3.20,-4.69,
5.503,23.37,0.96,1.72,-0.81,-3.20,-4.69,
5.504,23.37,0.96,1.72,-1.05,-2.94,-5.00,
5.504,23.23,-0.56,1.85,-1.05,-2.94,-5.00,
5.505,23.23,-0.56,1.85,-1.29,-2.66,-5.29,
5.506,22.98,-2.04,2.02,-1.29,-2.66,-5.29,
5.506,22.98,-2.04,2.02,-1.53,-2.35,-5.57,
5.506,22.74,-3.50,2.19,-1.53,-2.35,-5.57,
5.509,22.74,-3.50,2.19,-1.76,-2.04,-5.83,
5.51,22.50,-4.97,2.43,-1.76,-2.04,-5.83,
5.515,22.50,-4.97,2.43,-1.98,-1.74,-6.08,
5.515,22.28,-6.36,2.74,-1.98,-1.74,-6.08,
5.519,22.11,-7.88,3.04,-1.98,-1.74,-6.08,
5.52,22.11,-7.88,3.04,-2.17,-1.45,-6.31,
5.524,22.12,-9.48,3.30,-2.17,-1.45,-6.31,
5.525,22.12,-9.48,3.30,-2.34,-1.16,-6.52,
5.533,22.28,-11.16,3.61,-2.34,-1.16,-6.52,
5.534,22.28,-11.16,3.61,-2.49,-0.89,-6.71,
5.534,22.38,-12.84,4.02,-2.49,-0.89,-6.71,
5.535,22.38,-12.84,4.02,-2.60,-0.64,-6.90,
5.538,22.07,-14.11,4.53,-2.60,-0.64,-6.90,
5.539,22.07,-14.11,4.53,-2.69,-0.40,-7.06,
5.567,22.07,-14.11,4.53,-2.73,-0.15,-7.21,
5.568,22.20,-15.70,5.05,-2.73,-0.15,-7.21,
5.569,22.20,-15.70,5.05,-2.75,0.09,-7.34,
5.57,22.28,-17.15,5.56,-2.75,0.09,-7.34,
5.57,22.15,-18.52,6.09,-2.75,0.09,-7.34,
5.571,22.15,-18.52,6.09,-2.73,0.34,-7.48,
5.571,21.58,-19.49,6.59,-2.73,0.34,-7.48,
5.572,21.58,-19.49,6.59,-2.67,0.59,-7.61,
5.572,20.64,-20.02,7.04,-2.67,0.59,-7.61,
5.573,20.64,-20.02,7.04,-2.58,0.85,-7.72,
5.573,20.64,-20.02,7.04,-2.45,1.13,-7.80,
5.574,19.39,-20.23,7.35,-2.45,1.13,-7.80,
5.574,19.39,-20.23,7.35,-2.28,1.42,-7.85,
5.575,18.03,-20.28,7.58,-2.28,1.42,-7.85,
5.579,18.03,-20.28,7.58,-2.09,1.71,-7.85,
5.58,16.76,-20.31,7.63,-2.09,1.71,-7.85,
5.583,16.76,-20.31,7.63,-1.86,1.99,-7.83,
5.584,15.89,-20.53,7.56,-1.86,1.99,-7.83,
5.587,15.89,-20.53,7.56,-1.61,2.25,-7.79,
5.588,15.33,-20.89,7.36,-1.61,2.25,-7.79,
5.594,15.16,-21.45,7.12,-1.61,2.25,-7.79,
5.595,15.16,-21.45,7.12,-1.35,2.47,-7.74,
5.597,15.06,-22.00,6.81,-1.35,2.47,-7.74,
5.598,15.06,-22.00,6.81,-1.07,2.65,-7.69,
5.602,14.85,-22.43,6.49,-1.07,2.65,-7.69,
5.603,14.85,-22.43,6.49,-0.80,2.80,-7.65,
5.607,14.37,-22.61,6.08,-0.80,2.80,-7.65,
5.607,14.37,-22.61,6.08,-0.51,2.91,-7.61,
5.616,13.78,-22.69,5.60,-0.51,2.91,-7.61,
5.617,13.78,-22.69,5.60,-0.23,2.98,-7.57,
5.617,13.20,-22.92,5.08,-0.23,2.98,-7.57,
5.618,13.20,-22.92,5.08,0.04,3.02,-7.54,
5.621,13.20,-22.92,5.08,0.31,3.02,-7.51,
5.622,12.87,-23.32,4.63,0.31,3.02,-7.51,
5.649,12.87,-23.32,4.63,0.60,2.99,-7.46,
5.65,12.59,-23.76,4.43,0.60,2.99,-7.46,
5.65,12.14,-24.24,4.34,0.60,2.99,-7.46,
5.651,12.14,-24.24,4.34,0.90,2.93,-7.40,
5.651,12.14,-24.24,4.34,1.21,2.82,-7.34,
5.652,11.62,-24.55,4.28,1.21,2.82,-7.34,
5.652,10.98,-24.80,4.17,1.21,2.82,-7.34,
5.653,10.98,-24.80,4.17,1.54,2.64,-7.27,
5.653,10.98,-24.80,4.17,1.87,2.42,-7.19,
5.653,10.17,-24.91,3.94,1.87,2.42,-7.19,
5.654,9.21,-24.87,3.83,1.87,2.42,-7.19,
5.654,9.21,-24.87,3.83,2.21,2.13,-7.12,
5.656,9.21,-24.87,3.83,2.54,1.78,-7.05,
5.656,8.15,-24.66,3.70,2.54,1.78,-7.05,
5.667,8.15,-24.66,3.70,2.86,1.37,-6.99,
5.668,7.11,-24.48,3.64,2.86,1.37,-6.99,
5.668,7.11,-24.48,3.64,3.17,0.89,-6.94,
5.669,6.15,-24.27,3.71,3.17,0.89,-6.94,
5.67,6.15,-24.27,3.71,3.48,0.34,-6.89,
5.67,5.37,-24.21,3.91,3.48,0.34,-6.89,
5.675,5.37,-24.21,3.91,3.78,-0.24,-6.85,
5.7,4.68,-24.22,4.24,3.78,-0.24,-6.85,
5.701,4.68,-24.22,4.24,4.09,-0.84,-6.82,
5.701,4.24,-24.38,4.59,4.09,-0.84,-6.82,
5.702,4.24,-24.38,4.59,4.41,-1.44,-6.78,
5.702,3.97,-24.78,4.86,4.41,-1.44,-6.78,
5.703,3.97,-24.78,4.86,4.74,-2.01,-6.74,
5.703,3.97,-25.36,5.09,4.74,-2.01,-6.74,
5.733,3.97,-25.36,5.09,5.08,-2.52,-6.70,
5.734,4.01,-25.87,5.19,5.08,-2.52,-6.70,
5.734,4.01,-25.87,5.19,5.40,-2.97,-6.65,
5.735,3.79,-26.17,5.17,5.40,-2.97,-6.65,
5.735,3.79,-26.17,5.17,5.69,-3.35,-6.60,
5.736,3.28,-26.16,5.04,5.69,-3.35,-6.60,
5.736,2.60,-25.91,4.80,5.69,-3.35,-6.60,
5.737,2.60,-25.91,4.80,5.95,-3.67,-6.54,
5.737,1.99,-25.57,4.50,5.95,-3.67,-6.54,
5.737,1.99,-25.57,4.50,6.17,-3.94,-6.47,
5.738,1.99,-25.57,4.50,6.33,-4.17,-6.39,
5.738,1.44,-25.12,4.07,6.33,-4.17,-6.39,
5.739,1.44,-25.12,4.07,6.43,-4.36,-6.32,
5.739,0.82,-24.63,3.57,6.43,-4.36,-6.32,
5.74,0.82,-24.63,3.57,6.46,-4.50,-6.25,
5.74,0.16,-24.13,3.08,6.46,-4.50,-6.25,
5.741,0.16,-24.13,3.08,6.41,-4.58,-6.18,
5.741,-0.56,-23.69,2.68,6.41,-4.58,-6.18,
5.742,-0.56,-23.69,2.68,6.30,-4.59,-6.11,
5.742,-1.28,-23.26,2.29,6.30,-4.59,-6.11,
5.744,-2.07,-22.84,1.93,6.30,-4.59,-6.11,
5.745,-2.07,-22.84,1.93,6.11,-4.54,-6.04,
5.748,-2.88,-22.31,1.74,6.11,-4.54,-6.04,
5.749,-2.88,-22.31,1.74,5.86,-4.41,-5.94,
5.753,-3.56,-21.67,1.52,5.86,-4.41,-5.94,
5.754,-3.56,-21.67,1.52,5.56,-4.23,-5.86,
5.758,-4.21,-21.08,1.30,5.56,-4.23,-5.86,
5.759,-4.21,-21.08,1.30,5.23,-4.03,-5.78,
5.766,-4.21,-21.08,1.30,4.87,-3.83,-5.70,
5.767,-4.92,-20.68,0.94,4.87,-3.83,-5.70,
5.767,-5.63,-20.48,0.30,4.87,-3.83,-5.70,
5.768,-5.63,-20.48,0.30,4.47,-3.62,-5.59,
5.773,-5.63,-20.48,0.30,4.02,-3.41,-5.45,
5.773,-6.41,-20.41,-0.50,4.02,-3.41,-5.45,
5.803,-6.41,-20.41,-0.50,3.51,-3.18,-5.25,
5.803,-7.25,-20.39,-1.30,3.51,-3.18,-5.25,
5.804,-7.96,-20.42,-1.83,3.51,-3.18,-5.25,
5.804,-7.96,-20.42,-1.83,2.93,-2.93,-5.01,
5.805,-8.41,-20.33,-2.00,2.93,-2.93,-5.01,
5.805,-8.41,-20.33,-2.00,2.29,-2.64,-4.71,
5.806,-8.57,-20.18,-1.75,2.29,-2.64,-4.71,
5.806,-8.57,-20.18,-1.75,1.64,-2.32,-4.37,
5.806,-8.57,-20.18,-1.75,1.01,-1.96,-4.01,
5.807,-8.35,-20.07,-1.11,1.01,-1.96,-4.01,
5.808,-8.35,-20.07,-1.11,0.43,-1.59,-3.66,
5.808,-8.02,-20.00,-0.26,0.43,-1.59,-3.66,
5.808,-8.02,-20.00,-0.26,-0.10,-1.22,-3.34,
5.809,-7.79,-19.96,0.64,-0.10,-1.22,-3.34,
5.812,-7.60,-19.91,1.59,-0.10,-1.22,-3.34,
5.812,-7.60,-19.91,1.59,-0.56,-0.87,-3.07,
5.817,-7.60,-19.91,1.59,-0.96,-0.53,-2.82,
5.817,-7.45,-19.84,2.42,-0.96,-0.53,-2.82,
5.821,-7.53,-19.74,3.16,-0.96,-0.53,-2.82,
5.822,-7.53,-19.74,3.16,-1.29,-0.20,-2.63,
5.834,-7.53,-19.74,3.16,-1.56,0.14,-2.48,
5.835,-7.91,-19.57,3.90,-1.56,0.14,-2.48,
5.836,-8.61,-19.39,4.72,-1.56,0.14,-2.48,
5.837,-8.61,-19.39,4.72,-1.76,0.45,-2.37,
5.838,-9.48,-19.27,5.48,-1.76,0.45,-2.37,
5.838,-9.48,-19.27,5.48,-1.88,0.72,-2.26,
5.841,-10.35,-19.13,6.25,-1.88,0.72,-2.26,
5.841,-10.35,-19.13,6.25,-1.92,0.93,-2.13,
5.876,-10.35,-19.13,6.25,-1.88,1.07,-1.98,
5.877,-11.16,-18.98,6.90,-1.88,1.07,-1.98,
5.878,-11.74,-18.75,7.44,-1.88,1.07,-1.98,
5.878,-11.74,-18.75,7.44,-1.77,1.14,-1.80,
5.879,-11.74,-18.75,7.44,-1.59,1.12,-1.61,
5.879,-12.14,-18.56,7.72,-1.59,1.12,-1.61,
5.879,-12.50,-18.36,7.86,-1.59,1.12,-1.61,
5.88,-12.50,-18.36,7.86,-1.36,1.04,-1.39,
5.88,-12.50,-18.36,7.86,-1.09,0.92,-1.16,
5.881,-12.73,-18.24,7.88,-1.09,0.92,-1.16,
5.881,-12.73,-18.24,7.88,-0.80,0.78,-0.90,
5.882,-12.77,-18.04,7.82,-0.80,0.78,-0.90,
5.882,-12.53,-17.82,7.62,-0.80,0.78,-0.90,
5.883,-12.53,-17.82,7.62,-0.50,0.61,-0.64,
5.883,-12.02,-17.48,7.38,-0.50,0.61,-0.64,
5.883,-12.02,-17.48,7.38,-0.22,0.43,-0.37,
5.911,-12.02,-17.48,7.38,0.06,0.27,-0.13,
5.911,-11.29,-17.26,6.98,0.06,0.27,-0.13,
5.912,-11.29,-17.26,6.98,0.31,0.15,0.08,
5.912,-10.45,-17.13,6.49,0.31,0.15,0.08,
5.913,-9.60,-17.11,5.87,0.31,0.15,0.08,
5.913,-9.60,-17.11,5.87,0.53,0.07,0.26,
5.914,-8.81,-17.17,5.10,0.53,0.07,0.26,
5.914,-8.81,-17.17,5.10,0.72,0.03,0.42,
5.915,-8.22,-17.16,4.20,0.72,0.03,0.42,
5.915,-8.22,-17.16,4.20,0.85,0.02,0.55,
5.915,-7.87,-17.09,3.18,0.85,0.02,0.55,
5.916,-7.87,-17.09,3.18,0.92,0.02,0.65,
5.916,-7.87,-17.09,3.18,0.91,0.05,0.75,
5.916,-7.73,-16.98,2.19,0.91,0.05,0.75,
5.919,-7.71,-16.81,1.17,0.91,0.05,0.75,
5.919,-7.71,-16.81,1.17,0.82,0.12,0.84,
5.924,-7.71,-16.81,1.17,0.66,0.21,0.95,
5.924,-7.68,-16.66,0.33,0.66,0.21,0.95,
5.935,-7.60,-16.58,-0.37,0.66,0.21,0.95,
5.936,-7.60,-16.58,-0.37,0.43,0.33,1.07,
5.936,-7.60,-16.58,-0.37,0.16,0.48,1.21,
5.937,-7.37,-16.56,-0.82,0.16,0.48,1.21,
5.979,-7.04,-16.54,-1.04,0.16,0.48,1.21,
5.979,-7.04,-16.54,-1.04,-0.15,0.62,1.35,
5.98,-6.69,-16.46,-1.07,-0.15,0.62,1.35,
5.98,-6.69,-16.46,-1.07,-0.49,0.77,1.49,
5.981,-6.69,-16.46,-1.07,-0.84,0.91,1.63,
5.981,-6.51,-16.38,-1.09,-0.84,0.91,1.63,
5.982,-6.51,-16.38,-1.09,-1.18,1.05,1.77,
5.982,-6.51,-16.24,-1.09,-1.18,1.05,1.77,
5.982,-6.51,-16.24,-1.09,-1.52,1.18,1.92,
5.983,-6.67,-16.06,-1.06,-1.52,1.18,1.92,
5.983,-6.67,-16.06,-1.06,-1.85,1.29,2.10,
5.984,-6.82,-15.90,-1.03,-1.85,1.29,2.10,
5.984,-6.91,-15.73,-1.03,-1.85,1.29,2.10,
5.985,-6.91,-15.73,-1.03,-2.18,1.35,2.29,
5.985,-6.91,-15.73,-1.03,-2.51,1.37,2.51,
5.986,-6.85,-15.62,-0.99,-2.51,1.37,2.51,
5.986,-6.66,-15.64,-0.91,-2.51,1.37,2.51,
5.986,-6.66,-15.64,-0.91,-2.83,1.36,2.76,
5.987,-6.66,-15.64,-0.91,-3.15,1.32,3.01,
5.987,-6.28,-15.69,-0.74,-3.15,1.32,3.01,
5.988,-6.28,-15.69,-0.74,-3.45,1.27,3.26,
5.988,-5.83,-15.79,-0.42,-3.45,1.27,3.26,
5.992,-5.83,-15.79,-0.42,-3.72,1.19,3.50,
5.993,-5.29,-15.90,-0.04,-3.72,1.19,3.50,
6.002,-5.29,-15.90,-0.04,-3.97,1.11,3.75,
6.003,-4.67,-16.01,0.46,-3.97,1.11,3.75,
6.003,-4.67,-16.01,0.46,-4.19,1.02,3.98,
6.004,-4.01,-16.10,1.06,-4.19,1.02,3.98,
6.007,-3.31,-16.25,1.65,-4.19,1.02,3.98,
6.007,-3.31,-16.25,1.65,-4.37,0.94,4.19,
6.037,-2.56,-16.39,2.14,-4.37,0.94,4.19,
6.038,-2.56,-16.39,2.14,-4.51,0.86,4.40,
6.038,-2.56,-16.39,2.14,-4.62,0.80,4.59,
6.039,-1.91,-16.53,2.69,-4.62,0.80,4.59,
6.039,-1.91,-16.53,2.69,-4.70,0.78,4.76,
6.039,-1.31,-16.70,3.09,-4.70,0.78,4.76,
6.04,-1.31,-16.70,3.09,-4.76,0.78,4.94,
6.04,-0.86,-16.93,3.47,-4.76,0.78,4.94,
6.041,-0.86,-16.93,3.47,-4.79,0.80,5.11,
6.041,-0.37,-17.09,3.88,-4.79,0.80,5.11,
6.041,-0.37,-17.09,3.88,-4.82,0.85,5.29,
6.042,0.04,-17.22,4.27,-4.82,0.85,5.29,
6.042,0.04,-17.22,4.27,-4.83,0.92,5.46,
6.042,0.38,-17.28,4.71,-4.83,0.92,5.46,
6.046,0.38,-17.28,4.71,-4.82,0.98,5.61,
6.047,0.63,-17.21,5.13,-4.82,0.98,5.61,
6.051,0.63,-17.21,5.13,-4.78,1.02,5.75,
6.052,0.95,-17.12,5.64,-4.78,1.02,5.75,
6.056,0.95,-17.12,5.64,-4.70,1.02,5.88,
6.056,1.22,-17.02,6.19,-4.70,1.02,5.88,
6.067,1.22,-17.02,6.19,-4.57,0.97,6.01,
6.068,1.42,-16.96,6.77,-4.57,0.97,6.01,
6.068,1.42,-16.96,6.77,-4.38,0.85,6.16,
6.069,1.83,-16.99,7.42,-4.38,0.85,6.16,
6.07,1.83,-16.99,7.42,-4.14,0.68,6.31,
6.071,2.37,-17.18,7.92,-4.14,0.68,6.31,
6.075,2.37,-17.18,7.92,-3.83,0.47,6.45,
6.076,3.05,-17.51,8.25,-3.83,0.47,6.45,
6.106,3.05,-17.51,8.25,-3.49,0.23,6.59,
6.107,3.75,-17.96,8.38,-3.49,0.23,6.59,
6.107,3.75,-17.96,8.38,-3.11,-0.04,6.73,
6.108,4.44,-18.42,8.40,-3.11,-0.04,6.73,
6.109,5.19,-18.73,8.38,-3.11,-0.04,6.73,
6.109,5.19,-18.73,8.38,-2.72,-0.31,6.88,
6.11,5.91,-19.03,8.40,-2.72,-0.31,6.88,
6.111,5.91,-19.03,8.40,-2.31,-0.58,7.04,
6.111,6.67,-19.18,8.39,-2.31,-0.58,7.04,
6.112,6.67,-19.18,8.39,-1.88,-0.85,7.22,
6.113,6.67,-19.18,8.39,-1.45,-1.08,7.41,
6.113,7.49,-19.29,8.27,-1.45,-1.08,7.41,
6.114,8.31,-19.41,8.14,-1.45,-1.08,7.41,
6.114,8.31,-19.41,8.14,-1.01,-1.29,7.60,
6.115,9.21,-19.50,8.00,-1.01,-1.29,7.60,
6.115,9.21,-19.50,8.00,-0.57,-1.45,7.80,
6.119,10.12,-19.51,7.82,-0.57,-1.45,7.80,
6.12,10.12,-19.51,7.82,-0.14,-1.57,8.00,
6.124,10.99,-19.42,7.52,-0.14,-1.57,8.00,
6.125,10.99,-19.42,7.52,0.28,-1.63,8.18,
6.138,11.78,-19.20,7.13,0.28,-1.63,8.18,
6.139,11.78,-19.20,7.13,0.68,-1.64,8.35,
6.14,11.78,-19.20,7.13,1.04,-1.60,8.49,
6.141,12.61,-18.96,6.64,1.04,-1.60,8.49,
6.141,13.55,-18.65,6.10,1.04,-1.60,8.49,
6.142,13.55,-18.65,6.10,1.36,-1.51,8.61,
6.177,13.55,-18.65,6.10,1.63,-1.40,8.70,
6.178,14.57,-18.23,5.65,1.63,-1.40,8.70,
6.178,15.57,-17.77,5.24,1.63,-1.40,8.70,
6.179,15.57,-17.77,5.24,1.87,-1.27,8.74,
6.179,15.57,-17.77,5.24,2.07,-1.13,8.74,
6.18,16.47,-17.30,4.84,2.07,-1.13,8.74,
6.18,16.47,-17.30,4.84,2.24,-1.01,8.70,
6.181,17.26,-16.76,4.48,2.24,-1.01,8.70,
6.181,17.87,-16.04,4.11,2.24,-1.01,8.70,
6.182,17.87,-16.04,4.11,2.37,-0.91,8.61,
6.182,18.26,-15.22,3.77,2.37,-0.91,8.61,
6.182,18.26,-15.22,3.77,2.47,-0.83,8.50,
6.183,18.41,-14.35,3.44,2.47,-0.83,8.50,
6.183,18.41,-14.35,3.44,2.55,-0.77,8.36,
6.184,18.34,-13.55,3.08,2.55,-0.77,8.36,
6.184,18.34,-13.55,3.08,2.60,-0.73,8.20,
6.224,18.15,-12.83,2.75,2.60,-0.73,8.20,
6.225,18.15,-12.83,2.75,2.62,-0.71,8.05,
6.225,17.88,-12.23,2.50,2.62,-0.71,8.05,
6.226,17.88,-12.23,2.50,2.63,-0.69,7.89,
6.227,17.69,-11.81,2.30,2.63,-0.69,7.89,
6.228,17.69,-11.81,2.30,2.62,-0.66,7.76,
6.228,17.69,-11.81,2.30,2.61,-0.64,7.65,
6.229,17.44,-11.34,2.26,2.61,-0.64,7.65,
6.229,17.44,-11.34,2.26,2.59,-0.61,7.57,
6.23,17.37,-11.01,2.30,2.59,-0.61,7.57,
6.23,17.37,-11.01,2.30,2.58,-0.59,7.53,
6.231,17.43,-10.78,2.30,2.58,-0.59,7.53,
6.231,17.43,-10.78,2.30,2.58,-0.57,7.51,
6.232,17.60,-10.62,2.38,2.58,-0.57,7.51,
6.232,17.82,-10.43,2.60,2.58,-0.57,7.51,
6.233,17.82,-10.43,2.60,2.59,-0.53,7.51,
6.234,18.13,-10.20,2.85,2.59,-0.53,7.51,
6.234,18.13,-10.20,2.85,2.63,-0.50,7.52,
6.235,18.49,-9.86,3.08,2.63,-0.50,7.52,
6.235,18.49,-9.86,3.08,2.70,-0.47,7.53,
6.236,18.49,-9.86,3.08,2.79,-0.44,7.54,
6.236,18.90,-9.53,3.26,2.79,-0.44,7.54,
6.237,18.90,-9.53,3.26,2.91,-0.42,7.54,
6.238,19.34,-9.15,3.42,2.91,-0.42,7.54,
6.241,19.87,-8.75,3.42,2.91,-0.42,7.54,
6.242,19.87,-8.75,3.42,3.04,-0.40,7.52,
6.252,20.36,-8.32,3.32,3.04,-0.40,7.52,
6.253,20.36,-8.32,3.32,3.19,-0.36,7.50,
6.253,20.36,-8.32,3.32,3.35,-0.30,7.45,
6.253,20.91,-8.00,3.12,3.35,-0.30,7.45,
6.256,20.91,-8.00,3.12,3.51,-0.20,7.38,
6.256,21.43,-7.62,2.92,3.51,-0.20,7.38,
6.261,21.43,-7.62,2.92,3.67,-0.06,7.31,
6.261,21.93,-7.24,2.64,3.67,-0.06,7.31,
6.288,21.93,-7.24,2.64,3.82,0.11,7.23,
6.289,22.28,-6.89,2.42,3.82,0.11,7.23,
6.29,22.28,-6.89,2.42,3.97,0.31,7.15,
6.29,22.48,-6.54,2.09,3.97,0.31,7.15,
6.29,22.48,-6.54,2.09,4.10,0.49,7.09,
6.291,22.62,-6.18,1.65,4.10,0.49,7.09,
6.291,22.62,-6.18,1.65,4.22,0.66,7.03,
6.291,22.86,-5.80,1.06,4.22,0.66,7.03,
6.292,22.86,-5.80,1.06,4.30,0.80,6.97,
6.292,23.24,-5.45,0.47,4.30,0.80,6.97,
6.292,23.99,-5.10,-0.13,4.30,0.80,6.97,
6.293,23.99,-5.10,-0.13,4.36,0.92,6.89,
6.301,25.05,-4.82,-0.65,4.36,0.92,6.89,
6.302,25.05,-4.82,-0.65,4.39,1.00,6.79,
6.303,25.05,-4.82,-0.65,4.41,1.06,6.65,
6.303,26.08,-4.33,-1.06,4.41,1.06,6.65,
6.304,26.08,-4.33,-1.06,4.43,1.13,6.47,
6.305,26.93,-3.60,-1.41,4.43,1.13,6.47,
6.309,26.93,-3.60,-1.41,4.44,1.19,6.25,
6.31,27.86,-2.71,-1.81,4.44,1.19,6.25,
6.333,28.81,-1.81,-2.20,4.44,1.19,6.25,
6.334,28.81,-1.81,-2.20,4.44,1.25,5.97,
6.335,28.81,-1.81,-2.20,4.46,1.30,5.65,
6.335,29.60,-0.79,-2.60,4.46,1.30,5.65,
6.335,29.60,-0.79,-2.60,4.48,1.34,5.26,
6.335,30.27,0.26,-3.04,4.48,1.34,5.26,
6.336,30.27,0.26,-3.04,4.50,1.38,4.82,
6.336,30.91,1.27,-3.57,4.50,1.38,4.82,
6.336,30.91,1.27,-3.57,4.51,1.39,4.31,
6.337,31.35,2.19,-4.16,4.51,1.39,4.31,
6.338,31.37,2.91,-4.95,4.51,1.39,4.31,
6.339,31.37,2.91,-4.95,4.51,1.41,3.76,
6.343,30.91,3.33,-6.05,4.51,1.41,3.76,
6.344,30.91,3.33,-6.05,4.47,1.42,3.19,
6.349,30.91,3.33,-6.05,4.39,1.43,2.64,
6.35,30.06,3.63,-7.35,4.39,1.43,2.64,
6.353,30.06,3.63,-7.35,4.23,1.46,2.13,
6.354,29.14,3.75,-8.75,4.23,1.46,2.13,
6.358,29.14,3.75,-8.75,4.00,1.53,1.67,
6.358,28.30,3.73,-10.17,4.00,1.53,1.67,
6.363,28.30,3.73,-10.17,3.70,1.62,1.26,
6.364,27.52,3.74,-11.32,3.70,1.62,1.26,
6.368,26.61,3.76,-12.20,3.70,1.62,1.26,
6.369,26.61,3.76,-12.20,3.36,1.73,0.89,
6.373,26.61,3.76,-12.20,2.97,1.87,0.57,
6.374,25.54,3.83,-12.80,2.97,1.87,0.57,
6.377,24.50,3.86,-13.13,2.97,1.87,0.57,
6.378,24.50,3.86,-13.13,2.56,2.00,0.29,
6.388,24.50,3.86,-13.13,2.14,2.11,0.06,
6.39,23.71,3.87,-13.16,2.14,2.11,0.06,
6.39,23.71,3.87,-13.16,1.73,2.22,-0.14,
6.391,23.28,3.96,-12.92,1.73,2.22,-0.14,
6.392,23.28,3.96,-12.92,1.35,2.30,-0.33,
6.393,23.01,3.94,-12.59,1.35,2.30,-0.33,
6.43,23.01,3.94,-12.59,1.02,2.35,-0.52,
6.431,22.84,3.92,-12.12,1.02,2.35,-0.52,
6.432,22.84,3.92,-12.12,0.72,2.37,-0.72,
6.432,22.62,3.85,-11.69,0.72,2.37,-0.72,
6.433,22.62,3.85,-11.69,0.46,2.35,-0.91,
6.433,22.37,3.79,-11.28,0.46,2.35,-0.91,
6.434,22.14,3.70,-10.97,0.46,2.35,-0.91,
6.434,22.14,3.70,-10.97,0.22,2.30,-1.11,
6.435,22.14,3.70,-10.97,0.01,2.22,-1.31,
6.435,21.81,3.59,-10.78,0.01,2.22,-1.31,
6.436,21.34,3.40,-10.64,0.01,2.22,-1.31,
6.436,21.34,3.40,-10.64,-0.20,2.10,-1.52,
6.47,21.34,3.40,-10.64,-0.39,1.96,-1.71,
6.471,20.89,3.15,-10.57,-0.39,1.96,-1.71,
6.471,20.51,2.77,-10.60,-0.39,1.96,-1.71,
6.472,20.51,2.77,-10.60,-0.55,1.78,-1.89,
6.472,20.51,2.77,-10.60,-0.69,1.57,-2.05,
6.473,20.21,2.24,-10.67,-0.69,1.57,-2.05,
6.473,20.21,2.24,-10.67,-0.82,1.32,-2.19,
6.474,19.99,1.60,-10.79,-0.82,1.32,-2.19,
6.474,19.99,1.60,-10.79,-0.94,1.04,-2.30,
6.475,19.90,0.99,-10.90,-0.94,1.04,-2.30,
6.475,19.95,0.42,-10.94,-0.94,1.04,-2.30,
6.476,19.95,0.42,-10.94,-1.06,0.71,-2.38,
6.476,20.12,0.01,-11.06,-1.06,0.71,-2.38,
6.477,20.12,0.01,-11.06,-1.18,0.36,-2.45,
6.477,20.12,0.01,-11.06,-1.32,-0.03,-2.52,
6.478,20.27,-0.20,-11.07,-1.32,-0.03,-2.52,
6.479,20.29,-0.18,-10.91,-1.32,-0.03,-2.52,
6.479,20.29,-0.18,-10.91,-1.49,-0.41,-2.60,
6.48,20.24,-0.03,-10.61,-1.49,-0.41,-2.60,
6.48,20.24,-0.03,-10.61,-1.68,-0.77,-2.70,
6.481,20.26,0.12,-10.17,-1.68,-0.77,-2.70,
6.481,20.26,0.12,-10.17,-1.91,-1.10,-2.84,
6.482,20.26,0.12,-10.17,-2.17,-1.44,-3.01,
6.482,20.33,0.11,-9.75,-2.17,-1.44,-3.01,
6.485,20.48,-0.16,-9.18,-2.17,-1.44,-3.01,
6.485,20.48,-0.16,-9.18,-2.46,-1.78,-3.21,
6.49,20.63,-0.69,-8.58,-2.46,-1.78,-3.21,
6.491,20.63,-0.69,-8.58,-2.76,-2.11,-3.43,
6.494,20.72,-1.43,-7.78,-2.76,-2.11,-3.43,
6.495,20.72,-1.43,-7.78,-3.10,-2.40,-3.67,
6.503,20.63,-2.29,-6.63,-3.10,-2.40,-3.67,
6.503,20.63,-2.29,-6.63,-3.45,-2.67,-3.91,
6.504,20.63,-2.29,-6.63,-3.81,-2.90,-4.15,
6.504,20.55,-3.22,-5.15,-3.81,-2.90,-4.15,
6.509,20.55,-3.22,-5.15,-4.14,-3.09,-4.38,
6.51,20.48,-4.29,-3.51,-4.14,-3.09,-4.38,
6.53,20.48,-4.29,-3.51,-4.43,-3.22,-4.59,
6.531,20.38,-5.48,-1.79,-4.43,-3.22,-4.59,
6.531,20.22,-6.69,0.12,-4.43,-3.22,-4.59,
6.532,20.22,-6.69,0.12,-4.66,-3.32,-4.78,
6.532,20.18,-7.89,2.08,-4.66,-3.32,-4.78,
6.533,20.18,-7.89,2.08,-4.82,-3.34,-4.96,
6.533,20.14,-8.94,3.98,-4.82,-3.34,-4.96,
6.534,20.14,-8.94,3.98,-4.90,-3.30,-5.15,
6.534,20.14,-8.94,3.98,-4.89,-3.22,-5.34,
6.534,20.03,-9.91,5.88,-4.89,-3.22,-5.34,
6.539,19.96,-10.63,7.57,-4.89,-3.22,-5.34,
6.539,19.96,-10.63,7.57,-4.81,-3.09,-5.54,
6.543,19.96,-10.63,7.57,-4.64,-2.91,-5.76,
6.544,19.80,-11.25,8.89,-4.64,-2.91,-5.76,
6.548,19.80,-11.25,8.89,-4.41,-2.70,-5.97,
6.549,19.50,-11.77,9.82,-4.41,-2.70,-5.97,
6.553,19.50,-11.77,9.82,-4.14,-2.46,-6.19,
6.554,19.27,-12.24,10.21,-4.14,-2.46,-6.19,
6.558,19.27,-12.24,10.21,-3.86,-2.20,-6.39,
6.558,19.02,-12.75,10.16,-3.86,-2.20,-6.39,
6.563,18.98,-13.30,9.66,-3.86,-2.20,-6.39,
6.564,18.98,-13.30,9.66,-3.60,-1.95,-6.58,
6.568,19.32,-13.90,9.07,-3.60,-1.95,-6.58,
6.569,19.32,-13.90,9.07,-3.37,-1.70,-6.75,
6.572,19.57,-14.46,8.56,-3.37,-1.70,-6.75,
6.573,19.57,-14.46,8.56,-3.19,-1.44,-6.91,
6.577,19.57,-14.46,8.56,-3.05,-1.14,-7.09,
6.578,19.89,-15.17,7.92,-3.05,-1.14,-7.09,
6.582,19.89,-15.17,7.92,-2.96,-0.82,-7.28,
6.583,20.31,-16.25,7.50,-2.96,-0.82,-7.28,
6.587,20.31,-16.25,7.50,-2.90,-0.46,-7.47,
6.588,20.49,-17.62,7.40,-2.90,-0.46,-7.47,
6.592,20.49,-17.62,7.40,-2.85,-0.03,-7.65,
6.593,20.08,-18.87,7.67,-2.85,-0.03,-7.65,
6.605,20.08,-18.87,7.67,-2.81,0.48,-7.82,
6.606,19.06,-20.01,8.06,-2.81,0.48,-7.82,
6.607,19.06,-20.01,8.06,-2.76,1.02,-7.94,
6.608,17.40,-20.94,8.63,-2.76,1.02,-7.94,
6.608,17.40,-20.94,8.63,-2.68,1.55,-7.99,
6.609,15.46,-21.65,9.38,-2.68,1.55,-7.99,
6.612,15.46,-21.65,9.38,-2.54,2.08,-7.95,
6.612,13.56,-22.11,9.99,-2.54,2.08,-7.95,
6.645,13.56,-22.11,9.99,-2.34,2.62,-7.83,
6.646,11.69,-22.34,10.41,-2.34,2.62,-7.83,
6.646,11.69,-22.34,10.41,-2.11,3.13,-7.65,
6.647,10.01,-22.43,10.54,-2.11,3.13,-7.65,
6.647,10.01,-22.43,10.54,-1.83,3.59,-7.41,
6.648,8.67,-22.40,10.57,-1.83,3.59,-7.41,
6.649,7.69,-22.31,10.57,-1.83,3.59,-7.41,
6.649,7.69,-22.31,10.57,-1.52,3.98,-7.17,
6.649,7.05,-22.09,10.58,-1.52,3.98,-7.17,
6.65,7.05,-22.09,10.58,-1.18,4.32,-6.91,
6.65,6.94,-22.23,10.50,-1.18,4.32,-6.91,
6.651,6.94,-22.23,10.50,-0.79,4.57,-6.67,
6.651,6.94,-22.23,10.50,-0.37,4.74,-6.43,
6.652,6.81,-22.43,10.33,-0.37,4.74,-6.43,
6.652,6.69,-22.47,9.80,-0.37,4.74,-6.43,
6.652,6.69,-22.47,9.80,0.07,4.81,-6.20,
6.655,6.69,-22.47,9.80,0.49,4.80,-5.98,
6.656,6.54,-22.35,8.86,0.49,4.80,-5.98,
6.661,6.54,-22.35,8.86,0.86,4.74,-5.78,
6.661,6.26,-21.83,7.67,0.86,4.74,-5.78,
6.67,6.26,-21.83,7.67,1.15,4.65,-5.59,
6.671,5.96,-21.26,6.47,1.15,4.65,-5.59,
6.73,5.96,-21.26,6.47,1.36,4.58,-5.44,
6.731,5.87,-20.81,5.48,1.36,4.58,-5.44,
6.732,5.87,-20.81,5.48,1.52,4.54,-5.32,
6.732,6.01,-20.65,4.92,1.52,4.54,-5.32,
6.732,6.01,-20.65,4.92,1.65,4.52,-5.23,
6.733,6.26,-20.58,4.70,1.65,4.52,-5.23,
6.733,6.26,-20.58,4.70,1.80,4.53,-5.18,
6.733,6.61,-20.54,4.71,1.80,4.53,-5.18,
6.734,6.61,-20.54,4.71,1.98,4.54,-5.14,
6.734,6.85,-20.54,4.61,1.98,4.54,-5.14,
6.734,6.85,-20.54,4.61,2.18,4.56,-5.13,
6.735,6.93,-20.60,4.35,2.18,4.56,-5.13,
6.735,6.93,-20.60,4.35,2.39,4.56,-5.13,
6.735,6.78,-20.67,3.85,2.39,4.56,-5.13,
6.736,6.39,-20.67,3.21,2.39,4.56,-5.13,
6.736,6.39,-20.67,3.21,2.61,4.56,-5.14,
6.736,6.39,-20.67,3.21,2.81,4.53,-5.14,
6.737,5.93,-20.62,2.48,2.81,4.53,-5.14,
6.737,5.93,-20.62,2.48,3.00,4.48,-5.12,
6.737,5.65,-20.59,1.66,3.00,4.48,-5.12,
6.738,5.65,-20.59,1.66,3.16,4.41,-5.09,
6.738,5.34,-20.69,0.90,3.16,4.41,-5.09,
6.738,5.34,-20.69,0.90,3.30,4.33,-5.04,
6.739,4.94,-20.78,0.22,3.30,4.33,-5.04,
6.739,4.44,-20.74,-0.41,3.30,4.33,-5.04,
6.739,4.44,-20.74,-0.41,3.42,4.26,-4.98,
6.74,3.95,-20.55,-0.98,3.42,4.26,-4.98,
6.74,3.95,-20.55,-0.98,3.51,4.19,-4.92,
6.74,3.57,-20.34,-1.53,3.51,4.19,-4.92,
6.741,3.57,-20.34,-1.53,3.58,4.11,-4.84,
6.743,3.36,-20.20,-1.99,3.58,4.11,-4.84,
6.744,3.36,-20.20,-1.99,3.64,4.03,-4.77,
6.752,3.19,-20.13,-2.42,3.64,4.03,-4.77,
6.753,3.19,-20.13,-2.42,3.69,3.94,-4.69,
6.754,3.04,-20.10,-2.80,3.69,3.94,-4.69,
6.754,3.04,-20.10,-2.80,3.74,3.82,-4.63,
6.758,2.85,-20.00,-3.09,3.74,3.82,-4.63,
6.758,2.85,-20.00,-3.09,3.77,3.69,-4.57,
6.786,2.85,-20.00,-3.09,3.79,3.53,-4.53,
6.787,2.60,-19.85,-3.33,3.79,3.53,-4.53,
6.788,2.24,-19.69,-3.58,3.79,3.53,-4.53,
6.788,2.24,-19.69,-3.58,3.81,3.35,-4.49,
6.788,2.24,-19.69,-3.58,3.82,3.16,-4.46,
6.789,1.87,-19.53,-3.76,3.82,3.16,-4.46,
6.789,1.49,-19.45,-3.94,3.82,3.16,-4.46,
6.789,1.49,-19.45,-3.94,3.84,2.95,-4.44,
6.79,1.16,-19.43,-4.05,3.84,2.95,-4.44,
6.79,1.16,-19.43,-4.05,3.85,2.73,-4.41,
6.79,1.16,-19.43,-4.05,3.86,2.50,-4.37,
6.791,0.80,-19.48,-4.09,3.86,2.50,-4.37,
6.792,0.41,-19.46,-4.04,3.86,2.50,-4.37,
6.792,0.41,-19.46,-4.04,3.87,2.27,-4.34,
6.8,0.41,-19.46,-4.04,3.89,2.01,-4.30,
6.801,0.07,-19.35,-4.03,3.89,2.01,-4.30,
6.801,-0.23,-19.30,-4.05,3.89,2.01,-4.30,
6.802,-0.23,-19.30,-4.05,3.92,1.75,-4.26,
6.807,-0.52,-19.31,-4.09,3.92,1.75,-4.26,
6.808,-0.52,-19.31,-4.09,3.95,1.48,-4.22,
6.811,-0.75,-19.34,-4.09,3.95,1.48,-4.22,
6.812,-0.75,-19.34,-4.09,3.98,1.19,-4.18,
6.816,-0.75,-19.34,-4.09,4.01,0.89,-4.14,
6.817,-1.00,-19.39,-4.08,4.01,0.89,-4.14,
6.821,-1.00,-19.39,-4.08,4.04,0.58,-4.10,
6.822,-1.28,-19.44,-4.04,4.04,0.58,-4.10,
6.826,-1.41,-19.53,-4.04,4.04,0.58,-4.10,
6.827,-1.41,-19.53,-4.04,4.07,0.28,-4.06,
6.841,-1.52,-19.76,-3.99,4.07,0.28,-4.06,
6.842,-1.52,-19.76,-3.99,4.09,-0.02,-4.01,
6.843,-1.57,-20.00,-3.89,4.09,-0.02,-4.01,
6.844,-1.57,-20.00,-3.89,4.12,-0.28,-3.97,
6.845,-1.72,-20.20,-3.85,4.12,-0.28,-3.97,
6.845,-1.72,-20.20,-3.85,4.14,-0.52,-3.94,
6.848,-1.72,-20.20,-3.85,4.16,-0.73,-3.90,
6.849,-1.97,-20.30,-3.84,4.16,-0.73,-3.90,
6.852,-1.97,-20.30,-3.84,4.17,-0.93,-3.87,
6.853,-2.22,-20.42,-3.91,4.17,-0.93,-3.87,
6.856,-2.22,-20.42,-3.91,4.16,-1.09,-3.83,
6.857,-2.56,-20.56,-3.93,4.16,-1.09,-3.83,
6.86,-2.56,-20.56,-3.93,4.15,-1.21,-3.79,
6.861,-2.99,-20.59,-3.95,4.15,-1.21,-3.79,
6.896,-2.99,-20.59,-3.95,4.13,-1.28,-3.73,
6.898,-3.54,-20.62,-3.95,4.13,-1.28,-3.73,
6.898,-3.54,-20.62,-3.95,4.09,-1.31,-3.68,
6.899,-4.10,-20.56,-3.96,4.09,-1.31,-3.68,
6.899,-4.78,-20.55,-4.00,4.09,-1.31,-3.68,
6.9,-4.78,-20.55,-4.00,4.05,-1.30,-3.61,
6.9,-5.48,-20.47,-4.17,4.05,-1.30,-3.61,
6.9,-5.48,-20.47,-4.17,4.01,-1.26,-3.52,
6.901,-5.48,-20.47,-4.17,3.96,-1.21,-3.41,
6.901,-6.29,-20.40,-4.31,3.96,-1.21,-3.41,
6.902,-6.29,-20.40,-4.31,3.91,-1.14,-3.28,
6.902,-7.13,-20.31,-4.62,3.91,-1.14,-3.28,
6.903,-7.13,-20.31,-4.62,3.85,-1.07,-3.12,
6.903,-7.87,-20.18,-4.95,3.85,-1.07,-3.12,
6.904,-7.87,-20.18,-4.95,3.78,-0.98,-2.94,
6.904,-8.52,-20.08,-5.23,3.78,-0.98,-2.94,
6.905,-8.52,-20.08,-5.23,3.71,-0.89,-2.73,
6.905,-9.04,-19.93,-5.46,3.71,-0.89,-2.73,
6.909,-9.04,-19.93,-5.46,3.63,-0.79,-2.51,
6.91,-9.49,-19.67,-5.63,3.63,-0.79,-2.51,
6.944,-9.49,-19.67,-5.63,3.55,-0.68,-2.27,
6.945,-9.80,-19.44,-5.82,3.55,-0.68,-2.27,
6.946,-9.80,-19.44,-5.82,3.49,-0.57,-2.04,
6.946,-10.08,-19.17,-6.03,3.49,-0.57,-2.04,
6.947,-10.08,-19.17,-6.03,3.42,-0.48,-1.81,
6.947,-10.38,-18.90,-6.39,3.42,-0.48,-1.81,
6.948,-10.38,-18.90,-6.39,3.35,-0.40,-1.58,
6.948,-10.69,-18.76,-6.76,3.35,-0.40,-1.58,
6.949,-10.69,-18.76,-6.76,3.28,-0.34,-1.35,
6.949,-11.02,-18.61,-7.10,3.28,-0.34,-1.35,
6.95,-11.42,-18.44,-7.39,3.28,-0.34,-1.35,
6.95,-11.42,-18.44,-7.39,3.21,-0.29,-1.10,
6.951,-11.68,-18.22,-7.65,3.21,-0.29,-1.10,
6.951,-11.68,-18.22,-7.65,3.15,-0.26,-0.85,
6.952,-11.73,-18.03,-7.92,3.15,-0.26,-0.85,
6.952,-11.73,-18.03,-7.92,3.09,-0.27,-0.59,
6.953,-11.57,-17.86,-8.19,3.09,-0.27,-0.59,
6.953,-11.57,-17.86,-8.19,3.04,-0.32,-0.32,
6.967,-11.57,-17.86,-8.19,3.00,-0.40,-0.05,
6.968,-11.27,-17.78,-8.51,3.00,-0.40,-0.05,
6.968,-11.27,-17.78,-8.51,2.95,-0.50,0.20,
6.969,-10.90,-17.74,-8.85,2.95,-0.50,0.20,
6.969,-10.49,-17.68,-9.30,2.95,-0.50,0.20,
6.97,-10.49,-17.68,-9.30,2.88,-0.59,0.42,
7.0,-10.49,-17.68,-9.30,2.79,-0.66,0.61,
7.001,-10.16,-17.60,-9.81,2.79,-0.66,0.61,
7.002,-9.91,-17.45,-10.31,2.79,-0.66,0.61,
7.002,-9.91,-17.45,-10.31,2.66,-0.72,0.77,
7.003,-9.91,-17.45,-10.31,2.48,-0.76,0.90,
7.003,-9.72,-17.28,-10.80,2.48,-0.76,0.90,
7.004,-9.72,-17.28,-10.80,2.26,-0.77,1.02,
7.004,-9.64,-17.10,-11.20,2.26,-0.77,1.02,
7.005,-9.64,-17.10,-11.20,2.00,-0.74,1.12,
7.005,-9.68,-16.89,-11.46,2.00,-0.74,1.12,
7.005,-9.68,-16.89,-11.46,1.70,-0.69,1.22,
7.006,-9.79,-16.63,-11.63,1.70,-0.69,1.22,
7.006,-9.79,-16.63,-11.63,1.36,-0.62,1.33,
7.007,-9.95,-16.43,-11.70,1.36,-0.62,1.33,
7.007,-10.15,-16.19,-11.62,1.36,-0.62,1.33,
7.008,-10.15,-16.19,-11.62,1.00,-0.54,1.45,
7.011,-10.15,-16.19,-11.62,0.62,-0.45,1.58,
7.012,-10.40,-15.94,-11.43,0.62,-0.45,1.58,
7.021,-10.40,-15.94,-11.43,0.22,-0.35,1.73,
7.022,-10.56,-15.70,-11.14,0.22,-0.35,1.73,
7.023,-10.69,-15.43,-10.79,0.22,-0.35,1.73,
7.023,-10.69,-15.43,-10.79,-0.18,-0.25,1.89,
7.026,-10.69,-15.43,-10.79,-0.58,-0.16,2.05,
7.026,-10.66,-15.27,-10.43,-0.58,-0.16,2.05,
7.048,-10.66,-15.27,-10.43,-0.97,-0.10,2.22,
7.049,-10.66,-15.12,-10.09,-0.97,-0.10,2.22,
7.049,-10.66,-15.12,-10.09,-1.36,-0.05,2.40,
7.05,-10.54,-15.02,-9.65,-1.36,-0.05,2.40,
7.05,-10.54,-15.02,-9.65,-1.74,-0.04,2.58,
7.051,-10.33,-14.95,-9.03,-1.74,-0.04,2.58,
7.051,-10.33,-14.95,-9.03,-2.09,-0.05,2.76,
7.051,-10.03,-15.02,-8.29,-2.09,-0.05,2.76,
7.052,-10.03,-15.02,-8.29,-2.41,-0.10,2.94,
7.052,-9.72,-15.13,-7.65,-2.41,-0.10,2.94,
7.055,-9.72,-15.13,-7.65,-2.70,-0.18,3.13,
7.056,-9.24,-15.40,-6.94,-2.70,-0.18,3.13,
7.06,-9.24,-15.40,-6.94,-2.95,-0.28,3.31,
7.061,-8.67,-15.70,-6.33,-2.95,-0.28,3.31,
7.071,-8.02,-16.06,-5.69,-2.95,-0.28,3.31,
7.072,-8.02,-16.06,-5.69,-3.16,-0.42,3.49,
7.073,-7.38,-16.42,-5.05,-3.16,-0.42,3.49,
7.073,-7.38,-16.42,-5.05,-3.35,-0.57,3.66,
7.075,-7.38,-16.42,-5.05,-3.50,-0.75,3.82,
7.075,-6.85,-16.76,-4.39,-3.50,-0.75,3.82,
7.104,-6.85,-16.76,-4.39,-3.63,-0.93,3.99,
7.105,-6.35,-17.11,-3.68,-3.63,-0.93,3.99,
7.106,-6.35,-17.11,-3.68,-3.73,-1.13,4.16,
7.106,-5.83,-17.45,-3.12,-3.73,-1.13,4.16,
7.106,-5.42,-17.81,-2.59,-3.73,-1.13,4.16,
7.107,-5.42,-17.81,-2.59,-3.80,-1.33,4.35,
7.107,-5.42,-17.81,-2.59,-3.86,-1.53,4.55,
7.108,-5.21,-18.09,-2.03,-3.86,-1.53,4.55,
7.108,-4.75,-18.59,-1.40,-3.86,-1.53,4.55,
7.109,-4.75,-18.59,-1.40,-3.89,-1.73,4.78,
7.109,-4.75,-18.59,-1.40,-3.90,-1.91,5.02,
7.11,-4.12,-19.09,-0.67,-3.90,-1.91,5.02,
7.11,-3.24,-19.57,0.17,-3.90,-1.91,5.02,
7.11,-3.24,-19.57,0.17,-3.87,-2.09,5.27,
7.114,-3.24,-19.57,0.17,-3.80,-2.26,5.51,
7.115,-2.28,-19.98,1.08,-3.80,-2.26,5.51,
7.119,-1.43,-20.27,2.01,-3.80,-2.26,5.51,
7.12,-1.43,-20.27,2.01,-3.68,-2.42,5.73,
7.124,-0.54,-20.44,2.96,-3.68,-2.42,5.73,
7.124,-0.54,-20.44,2.96,-3.53,-2.57,5.94,
7.128,0.33,-20.49,3.88,-3.53,-2.57,5.94,
7.129,0.33,-20.49,3.88,-3.32,-2.69,6.13,
7.134,1.25,-20.49,4.67,-3.32,-2.69,6.13,
7.135,1.25,-20.49,4.67,-3.06,-2.79,6.31,
7.138,2.12,-20.50,5.39,-3.06,-2.79,6.31,
7.139,2.12,-20.50,5.39,-2.77,-2.87,6.48,
7.143,2.85,-20.53,5.89,-2.77,-2.87,6.48,
7.143,2.85,-20.53,5.89,-2.44,-2.90,6.64,
7.156,3.38,-20.60,6.21,-2.44,-2.90,6.64,
7.157,3.38,-20.60,6.21,-2.09,-2.89,6.80,
