
time,ax,ay,az,wx,wy,wz,
0.002,-0.63,0.56,-0.67,-0.00,-1.10,0.69,
0.003,-0.63,0.56,-0.67,0.00,-1.06,0.65,
0.003,-0.63,0.56,-0.67,0.03,-1.01,0.60,
0.004,-0.62,0.54,-0.46,0.03,-1.01,0.60,
0.008,-0.62,0.53,-0.39,0.03,-1.01,0.60,
0.008,-0.62,0.53,-0.39,0.07,-0.96,0.57,
0.011,-0.68,0.58,-0.35,0.07,-0.96,0.57,
0.011,-0.68,0.58,-0.35,0.12,-0.90,0.53,
0.015,-0.74,0.56,-0.38,0.12,-0.90,0.53,
0.016,-0.74,0.56,-0.38,0.15,-0.85,0.50,
0.02,-0.77,0.51,-0.45,0.15,-0.85,0.50,
0.021,-0.77,0.51,-0.45,0.18,-0.78,0.47,
0.025,-0.77,0.51,-0.45,0.20,-0.71,0.45,
0.026,-0.78,0.37,-0.50,0.20,-0.71,0.45,
0.03,-0.84,0.28,-0.49,0.20,-0.71,0.45,
0.03,-0.84,0.28,-0.49,0.22,-0.64,0.43,
0.043,-0.84,0.28,-0.49,0.22,-0.57,0.43,
0.044,-0.89,0.31,-0.41,0.22,-0.57,0.43,
0.045,-0.89,0.31,-0.41,0.21,-0.50,0.43,
0.045,-0.95,0.33,-0.42,0.21,-0.50,0.43,
0.046,-0.95,0.33,-0.42,0.20,-0.42,0.42,
0.046,-1.04,0.36,-0.47,0.20,-0.42,0.42,
0.084,-1.04,0.36,-0.47,0.17,-0.34,0.42,
0.085,-1.20,0.40,-0.65,0.17,-0.34,0.42,
0.086,-1.20,0.40,-0.65,0.14,-0.26,0.42,
0.086,-1.44,0.36,-0.84,0.14,-0.26,0.42,
0.086,-1.44,0.36,-0.84,0.10,-0.19,0.44,
0.087,-1.64,0.22,-0.98,0.10,-0.19,0.44,
0.087,-1.64,0.22,-0.98,0.05,-0.14,0.48,
0.088,-1.76,0.20,-1.02,0.05,-0.14,0.48,
0.088,-1.76,0.20,-1.02,-0.01,-0.11,0.52,
0.088,-1.75,0.22,-0.97,-0.01,-0.11,0.52,
0.089,-1.74,0.23,-0.88,-0.01,-0.11,0.52,
0.089,-1.74,0.23,-0.88,-0.06,-0.10,0.56,
0.09,-1.74,0.23,-0.88,-0.10,-0.09,0.60,
0.09,-1.65,0.21,-0.75,-0.10,-0.09,0.60,
0.09,-1.65,0.21,-0.75,-0.14,-0.08,0.64,
0.091,-1.56,0.22,-0.57,-0.14,-0.08,0.64,
0.091,-1.56,0.22,-0.57,-0.17,-0.08,0.68,
0.091,-1.37,0.20,-0.38,-0.17,-0.08,0.68,
0.094,-1.37,0.20,-0.38,-0.19,-0.09,0.71,
0.094,-1.21,0.20,-0.19,-0.19,-0.09,0.71,
0.098,-1.21,0.20,-0.19,-0.20,-0.12,0.72,
0.099,-1.05,0.18,-0.02,-0.20,-0.12,0.72,
0.107,-0.85,0.12,0.10,-0.20,-0.12,0.72,
0.108,-0.85,0.12,0.10,-0.20,-0.15,0.74,
0.108,-0.85,0.12,0.10,-0.20,-0.18,0.74,
0.109,-0.57,0.11,0.22,-0.20,-0.18,0.74,
0.113,-0.57,0.11,0.22,-0.20,-0.21,0.75,
0.113,-0.36,0.10,0.37,-0.20,-0.21,0.75,
0.126,-0.36,0.10,0.37,-0.19,-0.24,0.74,
0.127,-0.20,0.09,0.61,-0.19,-0.24,0.74,
0.128,-0.20,0.09,0.61,-0.18,-0.27,0.74,
0.128,0.01,0.07,0.83,-0.18,-0.27,0.74,
0.129,0.18,0.10,0.99,-0.18,-0.27,0.74,
0.129,0.18,0.10,0.99,-0.16,-0.29,0.72,
0.133,0.18,0.10,0.99,-0.14,-0.32,0.70,
0.133,0.29,0.10,1.14,-0.14,-0.32,0.70,
0.143,0.29,0.10,1.14,-0.12,-0.32,0.68,
0.143,0.38,0.10,1.33,-0.12,-0.32,0.68,
0.157,0.38,0.10,1.33,-0.11,-0.30,0.66,
0.157,0.48,0.06,1.53,-0.11,-0.30,0.66,
0.158,0.48,0.06,1.53,-0.10,-0.27,0.65,
0.159,0.66,0.07,1.72,-0.10,-0.27,0.65,
0.159,0.66,0.07,1.72,-0.10,-0.21,0.64,
0.16,0.72,0.03,1.75,-0.10,-0.21,0.64,
0.16,0.72,0.03,1.75,-0.10,-0.13,0.63,
0.161,0.77,0.03,1.75,-0.10,-0.13,0.63,
0.162,0.77,0.03,1.75,-0.10,-0.06,0.62,
0.162,0.76,0.04,1.75,-0.10,-0.06,0.62,
0.178,0.71,0.13,1.80,-0.10,-0.06,0.62,
0.179,0.71,0.13,1.80,-0.11,0.02,0.62,
0.179,0.71,0.13,1.80,-0.12,0.08,0.62,
0.179,0.69,0.16,1.89,-0.12,0.08,0.62,
0.18,0.69,0.16,1.89,-0.12,0.12,0.63,
0.181,0.71,0.19,1.98,-0.12,0.12,0.63,
0.183,0.71,0.19,1.98,-0.12,0.16,0.63,
0.184,0.79,0.19,2.15,-0.12,0.16,0.63,
0.188,0.79,0.19,2.15,-0.11,0.19,0.64,
0.189,0.93,0.16,2.34,-0.11,0.19,0.64,
0.191,0.93,0.16,2.34,-0.08,0.21,0.64,
0.191,1.15,0.13,2.51,-0.08,0.21,0.64,
0.196,1.15,0.13,2.51,-0.04,0.23,0.64,
0.196,1.34,0.11,2.58,-0.04,0.23,0.64,
0.233,1.34,0.11,2.58,0.02,0.22,0.62,
0.233,1.41,0.08,2.53,0.02,0.22,0.62,
0.234,1.41,0.08,2.53,0.08,0.21,0.61,
0.234,1.42,0.04,2.35,0.08,0.21,0.61,
0.234,1.42,0.04,2.35,0.14,0.17,0.59,
0.234,1.40,-0.01,2.11,0.14,0.17,0.59,
0.235,1.39,-0.03,1.86,0.14,0.17,0.59,
0.235,1.39,-0.03,1.86,0.20,0.12,0.58,
0.235,1.38,-0.02,1.58,0.20,0.12,0.58,
0.236,1.38,-0.02,1.58,0.25,0.04,0.57,
0.236,1.28,-0.02,1.27,0.25,0.04,0.57,
0.236,1.28,-0.02,1.27,0.30,-0.05,0.57,
0.237,1.23,-0.10,0.88,0.30,-0.05,0.57,
0.237,1.23,-0.10,0.88,0.33,-0.15,0.56,
0.237,1.23,-0.03,0.52,0.33,-0.15,0.56,
0.238,1.23,-0.03,0.52,0.34,-0.26,0.56,
0.24,1.29,0.02,0.17,0.34,-0.26,0.56,
0.24,1.29,0.02,0.17,0.33,-0.35,0.57,
0.245,1.45,0.04,-0.10,0.33,-0.35,0.57,
0.245,1.45,0.04,-0.10,0.29,-0.43,0.57,
0.249,1.63,0.04,-0.19,0.29,-0.43,0.57,
0.25,1.63,0.04,-0.19,0.23,-0.48,0.57,
0.259,1.63,0.04,-0.19,0.16,-0.51,0.56,
0.26,1.86,-0.03,-0.13,0.16,-0.51,0.56,
0.26,2.01,-0.14,0.04,0.16,-0.51,0.56,
0.26,2.01,-0.14,0.04,0.08,-0.53,0.55,
0.264,2.11,-0.27,0.22,0.08,-0.53,0.55,
0.265,2.11,-0.27,0.22,0.00,-0.52,0.53,
0.269,2.22,-0.42,0.35,0.00,-0.52,0.53,
0.27,2.22,-0.42,0.35,-0.07,-0.48,0.51,
0.274,2.22,-0.42,0.35,-0.14,-0.43,0.49,
0.274,2.21,-0.55,0.51,-0.14,-0.43,0.49,
0.279,2.21,-0.55,0.51,-0.20,-0.37,0.47,
0.279,2.15,-0.69,0.67,-0.20,-0.37,0.47,
0.306,2.07,-0.80,0.82,-0.20,-0.37,0.47,
0.307,2.07,-0.80,0.82,-0.25,-0.30,0.45,
0.307,1.99,-0.92,0.96,-0.25,-0.30,0.45,
0.308,1.99,-0.92,0.96,-0.28,-0.24,0.44,
0.308,1.93,-1.02,0.98,-0.28,-0.24,0.44,
0.309,1.93,-1.02,0.98,-0.29,-0.20,0.42,
0.309,1.80,-1.19,0.94,-0.29,-0.20,0.42,
0.309,1.80,-1.19,0.94,-0.29,-0.17,0.42,
0.31,1.80,-1.19,0.94,-0.27,-0.16,0.41,
0.31,1.63,-1.32,0.74,-0.27,-0.16,0.41,
0.31,1.63,-1.32,0.74,-0.24,-0.16,0.42,
0.311,1.45,-1.51,0.44,-0.24,-0.16,0.42,
0.315,1.45,-1.51,0.44,-0.20,-0.18,0.44,
0.316,1.32,-1.58,0.21,-0.20,-0.18,0.44,
0.325,1.32,-1.58,0.21,-0.16,-0.22,0.46,
0.326,1.30,-1.70,-0.07,-0.16,-0.22,0.46,
0.326,1.30,-1.70,-0.07,-0.11,-0.27,0.49,
0.326,1.27,-1.70,-0.39,-0.11,-0.27,0.49,
0.327,1.24,-1.77,-0.79,-0.11,-0.27,0.49,
0.328,1.24,-1.77,-0.79,-0.05,-0.35,0.52,
0.332,1.24,-1.83,-1.16,-0.05,-0.35,0.52,
0.333,1.24,-1.83,-1.16,0.01,-0.44,0.55,
0.343,1.24,-1.83,-1.16,0.08,-0.55,0.59,
0.344,1.32,-1.87,-1.55,0.08,-0.55,0.59,
0.344,1.32,-1.87,-1.55,0.14,-0.66,0.62,
0.344,1.46,-1.94,-1.84,0.14,-0.66,0.62,
0.347,1.61,-2.03,-2.14,0.14,-0.66,0.62,
0.347,1.61,-2.03,-2.14,0.21,-0.78,0.65,
0.36,1.76,-2.16,-2.43,0.21,-0.78,0.65,
0.361,1.76,-2.16,-2.43,0.28,-0.89,0.68,
0.362,1.89,-2.30,-2.75,0.28,-0.89,0.68,
0.363,1.89,-2.30,-2.75,0.35,-1.02,0.71,
0.363,2.01,-2.36,-3.01,0.35,-1.02,0.71,
0.364,2.01,-2.36,-3.01,0.42,-1.15,0.74,
0.366,2.16,-2.29,-3.26,0.42,-1.15,0.74,
0.367,2.16,-2.29,-3.26,0.49,-1.30,0.76,
0.38,2.16,-2.29,-3.26,0.56,-1.45,0.77,
0.381,2.27,-2.10,-3.59,0.56,-1.45,0.77,
0.382,1.82,-2.49,-3.85,0.56,-1.45,0.77,
0.382,1.82,-2.49,-3.85,0.62,-1.61,0.77,
0.383,2.11,-2.32,-3.63,0.62,-1.61,0.77,
0.383,2.11,-2.32,-3.63,0.69,-1.82,0.79,
0.429,2.11,-2.32,-3.63,0.77,-2.08,0.85,
0.429,2.17,-1.96,-4.05,0.77,-2.08,0.85,
0.43,2.17,-1.96,-4.05,0.84,-2.32,0.86,
0.43,2.49,-1.89,-4.64,0.84,-2.32,0.86,
0.431,2.49,-1.89,-4.64,0.87,-2.48,0.82,
0.431,3.19,-1.77,-5.11,0.87,-2.48,0.82,
0.432,3.19,-1.77,-5.11,0.86,-2.57,0.75,
0.432,3.96,-1.76,-5.50,0.86,-2.57,0.75,
0.433,4.50,-2.01,-5.74,0.86,-2.57,0.75,
0.433,4.50,-2.01,-5.74,0.81,-2.62,0.66,
0.434,4.50,-2.01,-5.74,0.73,-2.63,0.56,
0.436,4.77,-2.45,-5.98,0.73,-2.63,0.56,
0.437,4.77,-2.45,-5.98,0.65,-2.63,0.46,
0.437,5.89,-3.06,-6.92,0.65,-2.63,0.46,
0.438,5.89,-3.06,-6.92,0.53,-2.71,0.35,
0.438,5.26,-3.12,-6.76,0.53,-2.71,0.35,
0.439,4.41,-2.81,-6.59,0.53,-2.71,0.35,
0.439,4.41,-2.81,-6.59,0.41,-2.76,0.22,
0.44,3.97,-2.46,-6.73,0.41,-2.76,0.22,
0.44,3.97,-2.46,-6.73,0.30,-2.78,0.13,
0.441,3.84,-2.19,-6.89,0.30,-2.78,0.13,
0.441,3.84,-2.19,-6.89,0.19,-2.81,0.07,
0.442,3.84,-2.19,-6.89,0.07,-2.81,0.02,
0.442,3.77,-2.22,-7.06,0.07,-2.81,0.02,
0.445,3.77,-2.22,-7.06,-0.07,-2.75,-0.03,
0.446,3.74,-2.40,-7.29,-0.07,-2.75,-0.03,
0.449,3.74,-2.40,-7.29,-0.21,-2.67,-0.10,
0.45,3.71,-2.71,-7.49,-0.21,-2.67,-0.10,
0.455,3.71,-2.71,-7.49,-0.37,-2.59,-0.16,
0.456,3.73,-2.97,-7.75,-0.37,-2.59,-0.16,
0.459,3.73,-2.97,-7.75,-0.55,-2.50,-0.22,
0.46,3.74,-3.19,-7.88,-0.55,-2.50,-0.22,
0.464,3.74,-3.19,-7.88,-0.75,-2.40,-0.28,
0.464,3.72,-3.43,-7.97,-0.75,-2.40,-0.28,
0.477,3.64,-3.66,-8.30,-0.75,-2.40,-0.28,
0.477,3.64,-3.66,-8.30,-0.94,-2.29,-0.33,
0.478,3.64,-3.66,-8.30,-1.14,-2.17,-0.38,
0.478,3.41,-3.89,-8.50,-1.14,-2.17,-0.38,
0.479,3.41,-3.89,-8.50,-1.35,-2.04,-0.42,
0.479,3.00,-4.13,-8.78,-1.35,-2.04,-0.42,
0.484,2.55,-4.34,-8.90,-1.35,-2.04,-0.42,
0.484,2.55,-4.34,-8.90,-1.57,-1.93,-0.45,
0.489,2.10,-4.59,-8.89,-1.57,-1.93,-0.45,
0.49,2.10,-4.59,-8.89,-1.79,-1.84,-0.47,
0.493,2.10,-4.59,-8.89,-1.98,-1.78,-0.48,
0.494,1.61,-4.82,-8.82,-1.98,-1.78,-0.48,
0.498,1.25,-5.04,-8.54,-1.98,-1.78,-0.48,
0.499,1.25,-5.04,-8.54,-2.15,-1.78,-0.47,
0.526,0.96,-5.21,-8.26,-2.15,-1.78,-0.47,
0.527,0.96,-5.21,-8.26,-2.28,-1.84,-0.44,
0.528,0.96,-5.21,-8.26,-2.38,-2.01,-0.40,
0.528,0.78,-5.47,-7.88,-2.38,-2.01,-0.40,
0.529,0.78,-5.47,-7.88,-2.44,-2.28,-0.35,
0.529,0.87,-5.75,-7.32,-2.44,-2.28,-0.35,
0.53,0.95,-6.07,-6.83,-2.44,-2.28,-0.35,
0.53,0.95,-6.07,-6.83,-2.44,-2.62,-0.31,
0.53,1.06,-6.27,-6.60,-2.44,-2.62,-0.31,
0.531,1.06,-6.27,-6.60,-2.38,-3.01,-0.28,
0.531,1.06,-6.27,-6.60,-2.31,-3.43,-0.21,
0.532,1.21,-6.39,-6.74,-2.31,-3.43,-0.21,
0.534,1.39,-6.56,-7.28,-2.31,-3.43,-0.21,
0.534,1.39,-6.56,-7.28,-2.25,-3.82,-0.13,
0.543,1.39,-6.91,-8.13,-2.25,-3.82,-0.13,
0.544,1.39,-6.91,-8.13,-2.22,-4.17,-0.03,
0.544,1.39,-6.91,-8.13,-2.25,-4.48,0.07,
0.544,1.39,-7.27,-8.83,-2.25,-4.48,0.07,
0.547,1.51,-7.72,-9.31,-2.25,-4.48,0.07,
0.547,1.51,-7.72,-9.31,-2.32,-4.73,0.18,
0.561,1.47,-8.14,-9.55,-2.32,-4.73,0.18,
0.561,1.47,-8.14,-9.55,-2.43,-4.95,0.27,
0.562,1.47,-8.14,-9.55,-2.56,-5.20,0.36,
0.562,1.36,-8.49,-9.46,-2.56,-5.20,0.36,
0.562,1.36,-8.49,-9.46,-2.69,-5.44,0.46,
0.563,1.21,-8.87,-9.17,-2.69,-5.44,0.46,
0.567,1.05,-9.39,-8.72,-2.69,-5.44,0.46,
0.567,1.05,-9.39,-8.72,-2.82,-5.69,0.58,
0.577,1.05,-9.39,-8.72,-2.91,-5.95,0.72,
0.578,1.00,-10.03,-8.08,-2.91,-5.95,0.72,
0.579,1.15,-10.70,-7.33,-2.91,-5.95,0.72,
0.58,1.15,-10.70,-7.33,-2.96,-6.22,0.88,
0.582,1.33,-11.52,-6.72,-2.96,-6.22,0.88,
0.582,1.33,-11.52,-6.72,-2.96,-6.48,1.05,
0.601,1.33,-11.52,-6.72,-2.92,-6.76,1.22,
0.602,1.32,-12.37,-6.35,-2.92,-6.76,1.22,
0.603,1.32,-12.37,-6.35,-2.86,-7.06,1.42,
0.603,1.24,-13.22,-6.17,-2.86,-7.06,1.42,
0.604,1.24,-13.22,-6.17,-2.78,-7.34,1.64,
0.604,1.13,-13.94,-6.24,-2.78,-7.34,1.64,
0.605,1.03,-14.61,-6.41,-2.78,-7.34,1.64,
0.606,1.03,-14.61,-6.41,-2.71,-7.61,1.87,
0.608,1.08,-15.19,-6.62,-2.71,-7.61,1.87,
0.609,1.08,-15.19,-6.62,-2.67,-7.87,2.11,
0.61,1.08,-15.19,-6.62,-2.64,-8.11,2.36,
0.611,1.24,-15.81,-6.80,-2.64,-8.11,2.36,
0.615,1.24,-15.81,-6.80,-2.63,-8.30,2.61,
0.616,1.44,-16.51,-6.93,-2.63,-8.30,2.61,
0.65,1.44,-16.51,-6.93,-2.62,-8.43,2.85,
0.651,1.77,-17.19,-6.94,-2.62,-8.43,2.85,
0.651,2.26,-17.90,-6.78,-2.62,-8.43,2.85,
0.652,2.26,-17.90,-6.78,-2.64,-8.48,3.09,
0.686,2.26,-17.90,-6.78,-2.66,-8.47,3.32,
0.687,2.73,-18.72,-6.81,-2.66,-8.47,3.32,
0.688,2.73,-18.72,-6.81,-2.71,-8.40,3.54,
0.688,3.08,-19.56,-6.72,-2.71,-8.40,3.54,
0.689,3.51,-20.33,-6.65,-2.71,-8.40,3.54,
0.689,3.51,-20.33,-6.65,-2.76,-8.27,3.77,
0.69,4.01,-20.96,-6.63,-2.76,-8.27,3.77,
0.69,4.01,-20.96,-6.63,-2.82,-8.08,3.99,
0.691,4.62,-21.63,-6.71,-2.82,-8.08,3.99,
0.691,4.62,-21.63,-6.71,-2.89,-7.88,4.22,
0.692,5.23,-22.31,-6.72,-2.89,-7.88,4.22,
0.692,5.23,-22.31,-6.72,-2.96,-7.66,4.46,
0.693,5.63,-22.99,-6.78,-2.96,-7.66,4.46,
0.693,5.63,-22.99,-6.78,-3.06,-7.45,4.70,
0.694,5.63,-22.99,-6.78,-3.19,-7.25,4.97,
0.694,5.88,-23.72,-6.94,-3.19,-7.25,4.97,
0.694,5.88,-23.72,-6.94,-3.38,-7.07,5.27,
0.695,6.04,-24.36,-7.16,-3.38,-7.07,5.27,
0.696,6.28,-24.90,-7.21,-3.38,-7.07,5.27,
0.696,6.28,-24.90,-7.21,-3.63,-6.92,5.61,
0.697,6.28,-24.90,-7.21,-3.93,-6.78,6.00,
0.697,6.81,-25.39,-6.93,-3.93,-6.78,6.00,
0.698,6.81,-25.39,-6.93,-4.26,-6.64,6.43,
0.698,7.89,-25.92,-6.18,-4.26,-6.64,6.43,
0.699,7.89,-25.92,-6.18,-4.58,-6.48,6.88,
0.699,9.66,-26.57,-4.85,-4.58,-6.48,6.88,
0.699,9.66,-26.57,-4.85,-4.86,-6.31,7.34,
0.7,12.12,-27.15,-3.06,-4.86,-6.31,7.34,
0.701,15.11,-27.66,-1.00,-4.86,-6.31,7.34,
0.702,15.11,-27.66,-1.00,-5.07,-6.12,7.78,
0.712,15.11,-27.66,-1.00,-5.20,-5.91,8.15,
0.712,18.45,-28.28,1.05,-5.20,-5.91,8.15,
0.713,18.45,-28.28,1.05,-5.24,-5.68,8.46,
0.713,21.85,-28.98,3.02,-5.24,-5.68,8.46,
0.714,21.85,-28.98,3.02,-5.20,-5.41,8.68,
0.714,24.82,-29.65,4.87,-5.20,-5.41,8.68,
0.743,27.05,-29.99,6.56,-5.20,-5.41,8.68,
0.744,27.05,-29.99,6.56,-5.09,-5.09,8.83,
0.745,27.05,-29.99,6.56,-4.91,-4.71,8.94,
0.745,28.59,-29.81,7.92,-4.91,-4.71,8.94,
0.746,28.59,-29.81,7.92,-4.70,-4.28,9.03,
0.746,29.52,-29.09,8.66,-4.70,-4.28,9.03,
0.747,29.52,-29.09,8.66,-4.47,-3.82,9.11,
0.747,30.07,-28.00,8.90,-4.47,-3.82,9.11,
0.748,30.61,-26.82,8.68,-4.47,-3.82,9.11,
0.748,30.61,-26.82,8.68,-4.26,-3.35,9.20,
0.749,30.61,-26.82,8.68,-4.10,-2.88,9.26,
0.749,31.32,-25.75,8.26,-4.10,-2.88,9.26,
0.75,32.17,-24.87,7.88,-4.10,-2.88,9.26,
0.75,32.17,-24.87,7.88,-3.99,-2.42,9.26,
0.761,33.11,-24.11,7.67,-3.99,-2.42,9.26,
0.762,33.11,-24.11,7.67,-3.94,-2.01,9.21,
0.763,33.45,-23.25,7.92,-3.94,-2.01,9.21,
0.763,33.45,-23.25,7.92,-3.92,-1.64,9.10,
0.763,33.73,-22.04,8.63,-3.92,-1.64,9.10,
0.764,33.73,-22.04,8.63,-3.90,-1.36,8.94,
0.766,34.01,-20.26,9.79,-3.90,-1.36,8.94,
0.767,34.01,-20.26,9.79,-3.86,-1.14,8.71,
0.772,34.29,-17.95,11.27,-3.86,-1.14,8.71,
0.773,34.29,-17.95,11.27,-3.77,-1.02,8.41,
0.776,34.29,-17.95,11.27,-3.60,-1.00,8.05,
0.776,34.55,-15.33,13.05,-3.60,-1.00,8.05,
0.781,34.55,-15.33,13.05,-3.34,-1.06,7.64,
0.782,34.81,-12.58,14.79,-3.34,-1.06,7.64,
0.805,34.81,-12.58,14.79,-2.96,-1.19,7.16,
0.806,34.36,-9.89,16.06,-2.96,-1.19,7.16,
0.807,34.36,-9.89,16.06,-2.49,-1.39,6.62,
0.807,33.09,-7.26,16.71,-2.49,-1.39,6.62,
0.808,33.09,-7.26,16.71,-1.97,-1.67,6.06,
0.808,31.14,-4.84,16.61,-1.97,-1.67,6.06,
0.809,28.79,-2.62,15.81,-1.97,-1.67,6.06,
0.809,28.79,-2.62,15.81,-1.43,-2.01,5.50,
0.809,26.28,-0.71,14.71,-1.43,-2.01,5.50,
0.81,26.28,-0.71,14.71,-0.94,-2.39,4.98,
0.81,26.28,-0.71,14.71,-0.51,-2.77,4.51,
0.811,23.67,0.90,13.65,-0.51,-2.77,4.51,
0.815,23.67,0.90,13.65,-0.16,-3.09,4.12,
0.816,21.23,2.17,12.68,-0.16,-3.09,4.12,
0.822,21.23,2.17,12.68,0.12,-3.33,3.81,
0.823,19.02,3.22,11.80,0.12,-3.33,3.81,
0.825,19.02,3.22,11.80,0.35,-3.49,3.59,
0.826,17.13,4.16,11.10,0.35,-3.49,3.59,
0.83,17.13,4.16,11.10,0.52,-3.57,3.44,
0.831,15.56,5.04,10.59,0.52,-3.57,3.44,
0.834,15.56,5.04,10.59,0.64,-3.60,3.35,
0.835,14.42,5.94,10.29,0.64,-3.60,3.35,
0.845,14.42,5.94,10.29,0.73,-3.55,3.31,
0.846,13.84,6.85,10.19,0.73,-3.55,3.31,
0.847,13.73,7.74,10.22,0.73,-3.55,3.31,
0.847,13.73,7.74,10.22,0.82,-3.46,3.30,
0.85,14.14,8.61,10.26,0.82,-3.46,3.30,
0.85,14.14,8.61,10.26,0.90,-3.34,3.31,
0.855,14.14,8.61,10.26,0.98,-3.19,3.29,
0.856,14.92,9.55,10.39,0.98,-3.19,3.29,
0.859,14.92,9.55,10.39,1.06,-3.04,3.22,
0.86,16.01,10.63,10.47,1.06,-3.04,3.22,
0.864,16.01,10.63,10.47,1.13,-2.89,3.09,
0.864,17.19,11.69,10.19,1.13,-2.89,3.09,
0.897,17.19,11.69,10.19,1.19,-2.76,2.90,
0.898,18.14,12.78,9.78,1.19,-2.76,2.90,
0.933,18.14,12.78,9.78,1.22,-2.63,2.66,
0.933,18.91,13.95,9.38,1.22,-2.63,2.66,
0.934,18.91,13.95,9.38,1.21,-2.51,2.37,
0.934,19.51,15.16,8.98,1.21,-2.51,2.37,
0.935,19.90,16.09,8.60,1.21,-2.51,2.37,
0.935,19.90,16.09,8.60,1.16,-2.45,2.05,
0.936,20.27,16.62,8.52,1.16,-2.45,2.05,
0.936,20.27,16.62,8.52,1.07,-2.42,1.70,
0.937,20.92,16.85,8.87,1.07,-2.42,1.70,
0.937,20.92,16.85,8.87,0.97,-2.39,1.34,
0.938,20.92,16.85,8.87,0.88,-2.31,0.95,
0.938,21.76,16.69,9.56,0.88,-2.31,0.95,
0.939,21.76,16.69,9.56,0.83,-2.15,0.52,
0.939,22.37,16.12,10.18,0.83,-2.15,0.52,
0.94,22.37,16.12,10.18,0.81,-1.90,0.06,
0.94,22.34,15.23,10.63,0.81,-1.90,0.06,
0.94,21.56,14.29,10.83,0.81,-1.90,0.06,
0.941,21.56,14.29,10.83,0.83,-1.61,-0.42,
0.942,20.11,13.51,10.71,0.83,-1.61,-0.42,
0.942,20.11,13.51,10.71,0.85,-1.31,-0.86,
0.943,18.28,12.90,10.36,0.85,-1.31,-0.86,
0.943,18.28,12.90,10.36,0.88,-1.03,-1.26,
0.944,16.23,12.33,10.11,0.88,-1.03,-1.26,
0.944,16.23,12.33,10.11,0.91,-0.77,-1.57,
0.945,16.23,12.33,10.11,0.92,-0.55,-1.79,
0.945,14.08,11.60,9.82,0.92,-0.55,-1.79,
0.946,12.10,10.60,9.36,0.92,-0.55,-1.79,
0.946,12.10,10.60,9.36,0.94,-0.37,-1.92,
0.947,11.24,10.28,9.05,0.94,-0.37,-1.92,
0.947,11.24,10.28,9.05,0.94,-0.22,-1.95,
0.947,10.38,10.15,9.18,0.94,-0.22,-1.95,
0.948,10.38,10.15,9.18,0.93,-0.11,-1.96,
0.952,9.31,10.17,9.24,0.93,-0.11,-1.96,
0.952,9.31,10.17,9.24,0.92,0.01,-1.94,
0.961,9.31,10.17,9.24,0.93,0.15,-1.89,
0.962,8.29,10.00,9.01,0.93,0.15,-1.89,
0.962,8.29,10.00,9.01,0.94,0.30,-1.80,
0.963,7.68,9.56,8.69,0.94,0.30,-1.80,
0.966,7.68,9.56,8.69,0.95,0.45,-1.68,
0.967,7.49,9.03,8.41,0.95,0.45,-1.68,
0.99,7.62,8.58,8.31,0.95,0.45,-1.68,
0.991,7.62,8.58,8.31,0.95,0.58,-1.57,
0.991,7.62,8.58,8.31,0.96,0.66,-1.46,
0.992,7.95,8.30,8.29,0.96,0.66,-1.46,
0.992,7.95,8.30,8.29,0.99,0.68,-1.38,
0.992,8.07,7.80,8.14,0.99,0.68,-1.38,
0.993,7.65,6.79,7.61,0.99,0.68,-1.38,
0.993,7.65,6.79,7.61,1.03,0.58,-1.29,
0.993,7.65,6.79,7.61,1.10,0.31,-1.17,
0.993,8.40,7.39,8.30,1.10,0.31,-1.17,
0.996,8.40,7.39,8.30,1.20,0.09,-1.11,
0.996,9.39,8.16,9.19,1.20,0.09,-1.11,
1.001,9.39,8.16,9.19,1.30,-0.09,-1.12,
1.001,9.85,8.39,9.81,1.30,-0.09,-1.12,
1.006,10.33,8.04,9.92,1.30,-0.09,-1.12,
1.006,10.33,8.04,9.92,1.46,-0.23,-1.18,
1.011,10.33,8.04,9.92,1.64,-0.38,-1.25,
1.011,11.19,7.46,9.88,1.64,-0.38,-1.25,
1.015,12.16,6.86,9.84,1.64,-0.38,-1.25,
1.016,12.16,6.86,9.84,1.82,-0.51,-1.34,
1.032,13.08,6.26,9.86,1.82,-0.51,-1.34,
1.033,13.08,6.26,9.86,1.98,-0.63,-1.46,
1.035,14.02,5.75,10.01,1.98,-0.63,-1.46,
1.037,14.02,5.75,10.01,2.14,-0.71,-1.62,
1.039,14.82,5.27,10.21,2.14,-0.71,-1.62,
1.039,14.82,5.27,10.21,2.29,-0.72,-1.82,
1.04,14.82,5.27,10.21,2.44,-0.70,-2.04,
1.04,15.48,4.84,10.31,2.44,-0.70,-2.04,
1.041,16.02,4.28,10.21,2.44,-0.70,-2.04,
1.042,16.02,4.28,10.21,2.59,-0.64,-2.29,
1.077,15.96,3.40,9.84,2.59,-0.64,-2.29,
1.078,15.96,3.40,9.84,2.74,-0.56,-2.55,
1.079,16.16,2.52,9.39,2.74,-0.56,-2.55,
1.079,16.16,2.52,9.39,2.87,-0.50,-2.80,
1.08,15.85,1.64,9.25,2.87,-0.50,-2.80,
1.08,15.85,1.64,9.25,2.98,-0.46,-3.05,
1.081,14.93,0.80,9.35,2.98,-0.46,-3.05,
1.081,14.93,0.80,9.35,3.08,-0.42,-3.29,
1.082,13.78,0.06,9.31,3.08,-0.42,-3.29,
1.083,13.78,0.06,9.31,3.18,-0.38,-3.49,
1.083,13.04,-0.63,9.06,3.18,-0.38,-3.49,
1.084,13.04,-0.63,9.06,3.27,-0.38,-3.64,
1.084,12.49,-1.66,9.29,3.27,-0.38,-3.64,
1.085,12.49,-1.66,9.29,3.38,-0.51,-3.72,
1.085,12.49,-1.66,9.29,3.52,-0.78,-3.76,
1.086,12.90,-1.61,8.87,3.52,-0.78,-3.76,
1.086,12.90,-1.61,8.87,3.60,-0.92,-3.85,
1.087,12.95,-2.20,8.36,3.60,-0.92,-3.85,
1.09,12.95,-2.20,8.36,3.63,-0.98,-3.94,
1.091,13.24,-2.82,8.42,3.63,-0.98,-3.94,
1.094,13.24,-2.82,8.42,3.65,-1.06,-4.03,
1.094,13.45,-3.81,8.57,3.65,-1.06,-4.03,
1.099,13.45,-3.81,8.57,3.68,-1.16,-4.10,
1.1,13.43,-4.97,8.51,3.68,-1.16,-4.10,
1.105,13.43,-4.97,8.51,3.71,-1.31,-4.17,
1.106,13.47,-6.04,8.49,3.71,-1.31,-4.17,
1.108,13.47,-6.04,8.49,3.74,-1.49,-4.22,
1.109,13.70,-6.92,8.60,3.74,-1.49,-4.22,
1.113,13.70,-6.92,8.60,3.76,-1.70,-4.25,
1.114,14.19,-7.65,8.78,3.76,-1.70,-4.25,
1.154,14.19,-7.65,8.78,3.79,-1.90,-4.30,
1.155,14.90,-8.49,9.03,3.79,-1.90,-4.30,
1.156,14.90,-8.49,9.03,3.82,-2.12,-4.35,
1.156,15.64,-9.36,9.36,3.82,-2.12,-4.35,
1.157,15.64,-9.36,9.36,3.86,-2.36,-4.42,
1.158,16.39,-10.31,9.67,3.86,-2.36,-4.42,
1.158,16.39,-10.31,9.67,3.89,-2.56,-4.53,
1.159,17.05,-11.27,9.93,3.89,-2.56,-4.53,
1.16,17.53,-12.10,10.16,3.89,-2.56,-4.53,
1.16,17.53,-12.10,10.16,3.93,-2.76,-4.65,
1.161,17.53,-12.10,10.16,3.97,-2.97,-4.79,
1.162,17.85,-12.90,10.38,3.97,-2.97,-4.79,
1.162,17.85,-12.90,10.38,4.00,-3.21,-4.94,
1.163,18.17,-13.60,10.51,4.00,-3.21,-4.94,
1.163,18.17,-13.60,10.51,4.04,-3.45,-5.09,
1.164,18.63,-14.24,10.62,4.04,-3.45,-5.09,
1.165,19.31,-15.01,10.62,4.04,-3.45,-5.09,
1.165,19.31,-15.01,10.62,4.07,-3.70,-5.25,
1.166,19.31,-15.01,10.62,4.10,-3.94,-5.44,
1.166,20.29,-16.01,10.38,4.10,-3.94,-5.44,
1.167,20.29,-16.01,10.38,4.09,-4.16,-5.65,
1.167,21.36,-17.10,10.08,4.09,-4.16,-5.65,
1.171,22.13,-18.08,9.79,4.09,-4.16,-5.65,
1.172,22.13,-18.08,9.79,4.04,-4.37,-5.89,
1.177,22.48,-19.07,9.50,4.04,-4.37,-5.89,
1.178,22.48,-19.07,9.50,3.93,-4.54,-6.17,
1.181,22.68,-20.05,9.33,3.93,-4.54,-6.17,
1.182,22.68,-20.05,9.33,3.79,-4.65,-6.47,
1.193,23.02,-21.09,9.33,3.79,-4.65,-6.47,
1.194,23.02,-21.09,9.33,3.62,-4.68,-6.77,
1.195,23.13,-22.18,9.34,3.62,-4.68,-6.77,
1.195,23.13,-22.18,9.34,3.43,-4.63,-7.07,
1.196,23.13,-22.18,9.34,3.23,-4.49,-7.34,
1.196,22.98,-23.30,9.36,3.23,-4.49,-7.34,
1.2,22.51,-24.27,9.21,3.23,-4.49,-7.34,
1.201,22.51,-24.27,9.21,3.01,-4.29,-7.59,
1.226,22.51,-24.27,9.21,2.78,-4.03,-7.82,
1.227,21.66,-25.12,8.89,2.78,-4.03,-7.82,
1.227,20.68,-25.87,8.40,2.78,-4.03,-7.82,
1.227,20.68,-25.87,8.40,2.54,-3.76,-8.03,
1.228,19.59,-26.61,7.88,2.54,-3.76,-8.03,
1.228,19.59,-26.61,7.88,2.29,-3.47,-8.20,
1.229,19.59,-26.61,7.88,2.04,-3.17,-8.31,
1.229,18.37,-27.33,7.35,2.04,-3.17,-8.31,
1.23,17.53,-28.26,6.54,2.04,-3.17,-8.31,
1.23,17.53,-28.26,6.54,1.78,-2.87,-8.39,
1.231,17.53,-28.26,6.54,1.51,-2.55,-8.42,
1.231,16.58,-29.30,5.92,1.51,-2.55,-8.42,
1.235,16.58,-29.30,5.92,1.25,-2.17,-8.45,
1.235,14.44,-29.81,5.20,1.25,-2.17,-8.45,
1.24,14.44,-29.81,5.20,1.01,-1.76,-8.44,
1.24,11.55,-29.88,4.31,1.01,-1.76,-8.44,
1.245,8.79,-29.70,3.29,1.01,-1.76,-8.44,
1.245,8.79,-29.70,3.29,0.76,-1.37,-8.35,
1.25,6.10,-29.42,2.12,0.76,-1.37,-8.35,
1.25,6.10,-29.42,2.12,0.50,-1.02,-8.23,
1.261,3.46,-29.13,1.10,0.50,-1.02,-8.23,
1.262,3.46,-29.13,1.10,0.21,-0.71,-8.09,
1.263,0.67,-28.83,0.28,0.21,-0.71,-8.09,
1.263,0.67,-28.83,0.28,-0.09,-0.45,-7.92,
1.264,0.67,-28.83,0.28,-0.39,-0.21,-7.72,
1.264,-2.27,-28.45,-0.34,-0.39,-0.21,-7.72,
1.269,-2.27,-28.45,-0.34,-0.69,-0.01,-7.47,
1.27,-5.27,-27.89,-0.76,-0.69,-0.01,-7.47,
1.293,-5.27,-27.89,-0.76,-0.97,0.16,-7.15,
1.294,-8.06,-27.17,-0.84,-0.97,0.16,-7.15,
1.294,-8.06,-27.17,-0.84,-1.23,0.27,-6.76,
1.295,-10.43,-26.47,-0.57,-1.23,0.27,-6.76,
1.295,-12.07,-25.91,0.17,-1.23,0.27,-6.76,
1.296,-12.07,-25.91,0.17,-1.46,0.37,-6.34,
1.296,-13.06,-25.45,1.27,-1.46,0.37,-6.34,
1.296,-13.06,-25.45,1.27,-1.62,0.44,-5.88,
1.297,-13.43,-25.20,2.54,-1.62,0.44,-5.88,
1.297,-13.43,-25.20,2.54,-1.70,0.47,-5.43,
1.298,-13.43,-25.20,2.54,-1.68,0.45,-4.99,
1.298,-13.25,-25.03,3.79,-1.68,0.45,-4.99,
1.303,-13.25,-25.03,3.79,-1.58,0.38,-4.58,
1.303,-12.72,-24.86,4.77,-1.58,0.38,-4.58,
1.311,-12.72,-24.86,4.77,-1.42,0.28,-4.21,
1.312,-11.91,-24.54,5.31,-1.42,0.28,-4.21,
1.313,-11.91,-24.54,5.31,-1.21,0.17,-3.91,
1.314,-11.14,-24.13,5.47,-1.21,0.17,-3.91,
1.317,-11.14,-24.13,5.47,-0.98,0.08,-3.68,
1.318,-10.70,-23.68,5.31,-0.98,0.08,-3.68,
1.339,-10.70,-23.68,5.31,-0.76,-0.01,-3.50,
1.34,-10.60,-23.28,4.99,-0.76,-0.01,-3.50,
1.341,-10.67,-22.99,4.62,-0.76,-0.01,-3.50,
1.341,-10.67,-22.99,4.62,-0.55,-0.11,-3.34,
1.342,-10.76,-22.92,4.20,-0.55,-0.11,-3.34,
1.342,-10.76,-22.92,4.20,-0.37,-0.23,-3.20,
1.343,-10.76,-22.92,4.20,-0.22,-0.37,-3.05,
1.343,-11.06,-22.81,3.90,-0.22,-0.37,-3.05,
1.344,-11.70,-22.47,3.68,-0.22,-0.37,-3.05,
1.344,-11.70,-22.47,3.68,-0.09,-0.48,-2.91,
1.347,-12.65,-22.02,3.45,-0.09,-0.48,-2.91,
1.348,-12.65,-22.02,3.45,0.01,-0.57,-2.78,
1.352,-13.79,-21.47,3.23,0.01,-0.57,-2.78,
1.352,-13.79,-21.47,3.23,0.08,-0.65,-2.63,
1.357,-14.98,-20.87,3.09,0.08,-0.65,-2.63,
1.358,-14.98,-20.87,3.09,0.13,-0.71,-2.45,
1.388,-14.98,-20.87,3.09,0.15,-0.77,-2.24,
1.389,-16.07,-20.29,3.12,0.15,-0.77,-2.24,
1.389,-16.84,-19.73,3.28,0.15,-0.77,-2.24,
1.39,-16.84,-19.73,3.28,0.17,-0.82,-1.99,
1.39,-16.84,-19.73,3.28,0.18,-0.86,-1.71,
1.391,-17.29,-19.15,3.53,0.18,-0.86,-1.71,
1.391,-17.46,-18.59,3.85,0.18,-0.86,-1.71,
1.392,-17.46,-18.59,3.85,0.19,-0.90,-1.44,
1.392,-17.41,-18.04,4.21,0.19,-0.90,-1.44,
1.393,-17.41,-18.04,4.21,0.21,-0.93,-1.17,
1.393,-17.41,-18.04,4.21,0.25,-0.96,-0.91,
1.394,-17.16,-17.53,4.61,0.25,-0.96,-0.91,
1.394,-17.16,-17.53,4.61,0.31,-0.99,-0.67,
1.395,-16.68,-17.18,4.99,0.31,-0.99,-0.67,
1.405,-16.68,-17.18,4.99,0.39,-1.01,-0.45,
1.406,-16.04,-16.94,5.30,0.39,-1.01,-0.45,
1.406,-16.04,-16.94,5.30,0.49,-1.02,-0.26,
1.406,-15.28,-16.80,5.53,0.49,-1.02,-0.26,
1.407,-14.51,-16.72,5.61,0.49,-1.02,-0.26,
1.407,-14.51,-16.72,5.61,0.61,-1.03,-0.10,
1.41,-13.87,-16.82,5.60,0.61,-1.03,-0.10,
1.41,-13.87,-16.82,5.60,0.75,-1.03,0.04,
1.416,-13.37,-16.98,5.44,0.75,-1.03,0.04,
1.416,-13.37,-16.98,5.44,0.90,-1.03,0.15,
1.433,-12.97,-17.19,5.24,0.90,-1.03,0.15,
1.434,-12.97,-17.19,5.24,1.05,-1.01,0.26,
1.435,-12.71,-17.38,5.02,1.05,-1.01,0.26,
1.435,-12.71,-17.38,5.02,1.21,-0.97,0.38,
1.436,-12.71,-17.38,5.02,1.36,-0.90,0.51,
1.436,-12.43,-17.48,4.60,1.36,-0.90,0.51,
1.437,-12.43,-17.48,4.60,1.50,-0.80,0.63,
1.437,-12.11,-17.58,4.01,1.50,-0.80,0.63,
1.44,-12.11,-17.58,4.01,1.62,-0.66,0.72,
1.44,-11.90,-17.62,3.30,1.62,-0.66,0.72,
1.444,-11.90,-17.62,3.30,1.72,-0.48,0.80,
1.445,-11.92,-17.73,2.51,1.72,-0.48,0.80,
1.449,-11.92,-17.73,2.51,1.80,-0.28,0.87,
1.45,-12.27,-18.00,1.66,1.80,-0.28,0.87,
1.455,-13.06,-18.61,0.70,1.80,-0.28,0.87,
1.456,-13.06,-18.61,0.70,1.84,-0.05,0.95,
1.459,-13.06,-18.61,0.70,1.85,0.22,1.05,
1.46,-14.16,-19.40,-0.30,1.85,0.22,1.05,
1.464,-15.33,-20.24,-1.35,1.85,0.22,1.05,
1.465,-15.33,-20.24,-1.35,1.83,0.49,1.22,
1.469,-16.60,-21.04,-2.56,1.83,0.49,1.22,
1.469,-16.60,-21.04,-2.56,1.78,0.73,1.45,
1.474,-16.60,-21.04,-2.56,1.68,0.92,1.75,
1.475,-17.72,-21.65,-3.87,1.68,0.92,1.75,
1.479,-17.72,-21.65,-3.87,1.52,1.06,2.12,
1.479,-18.39,-22.09,-5.20,1.52,1.06,2.12,
1.483,-18.39,-22.09,-5.20,1.30,1.16,2.54,
1.484,-18.59,-22.51,-6.42,1.30,1.16,2.54,
1.496,-18.26,-22.99,-7.35,1.30,1.16,2.54,
1.497,-18.26,-22.99,-7.35,1.01,1.22,2.98,
1.497,-17.52,-23.49,-7.97,1.01,1.22,2.98,
1.498,-17.52,-23.49,-7.97,0.67,1.27,3.43,
1.499,-17.52,-23.49,-7.97,0.29,1.29,3.87,
1.499,-16.44,-24.01,-8.37,0.29,1.29,3.87,
1.503,-16.44,-24.01,-8.37,-0.13,1.29,4.31,
1.503,-15.08,-24.47,-8.46,-0.13,1.29,4.31,
1.532,-15.08,-24.47,-8.46,-0.58,1.32,4.74,
1.533,-13.36,-24.86,-8.26,-0.58,1.32,4.74,
1.533,-13.36,-24.86,-8.26,-1.04,1.37,5.15,
1.534,-11.40,-25.19,-7.93,-1.04,1.37,5.15,
1.534,-9.39,-25.48,-7.33,-1.04,1.37,5.15,
1.535,-9.39,-25.48,-7.33,-1.51,1.46,5.52,
1.536,-9.39,-25.48,-7.33,-1.96,1.56,5.84,
1.536,-7.42,-25.68,-6.52,-1.96,1.56,5.84,
1.537,-7.42,-25.68,-6.52,-2.41,1.69,6.12,
1.538,-5.45,-25.83,-5.58,-2.41,1.69,6.12,
1.539,-3.58,-25.92,-4.61,-2.41,1.69,6.12,
1.539,-3.58,-25.92,-4.61,-2.82,1.82,6.35,
1.539,-3.58,-25.92,-4.61,-3.21,1.95,6.54,
1.54,-1.75,-26.03,-3.63,-3.21,1.95,6.54,
1.549,-1.75,-26.03,-3.63,-3.56,2.08,6.69,
1.55,-0.13,-26.17,-2.55,-3.56,2.08,6.69,
1.55,1.24,-26.25,-1.48,-3.56,2.08,6.69,
1.551,1.24,-26.25,-1.48,-3.88,2.21,6.80,
1.552,2.48,-26.34,-0.36,-3.88,2.21,6.80,
1.552,2.48,-26.34,-0.36,-4.15,2.35,6.88,
1.582,2.48,-26.34,-0.36,-4.37,2.48,6.94,
1.583,3.44,-26.34,0.73,-4.37,2.48,6.94,
1.583,4.25,-26.43,1.66,-4.37,2.48,6.94,
1.584,4.25,-26.43,1.66,-4.54,2.58,7.00,
1.584,4.25,-26.43,1.66,-4.67,2.64,7.07,
1.584,5.01,-26.61,2.62,-4.67,2.64,7.07,
1.585,5.01,-26.61,2.62,-4.74,2.63,7.16,
1.585,5.81,-26.82,3.63,-4.74,2.63,7.16,
1.585,5.81,-26.82,3.63,-4.76,2.59,7.28,
1.586,6.66,-26.94,4.59,-4.76,2.59,7.28,
1.586,6.66,-26.94,4.59,-4.74,2.52,7.42,
1.587,7.55,-27.01,5.46,-4.74,2.52,7.42,
1.587,7.55,-27.01,5.46,-4.66,2.43,7.58,
1.588,8.66,-26.96,6.21,-4.66,2.43,7.58,
1.591,8.66,-26.96,6.21,-4.55,2.31,7.74,
1.592,9.98,-26.79,6.94,-4.55,2.31,7.74,
1.596,9.98,-26.79,6.94,-4.40,2.16,7.89,
1.596,11.37,-26.49,7.63,-4.40,2.16,7.89,
1.6,12.72,-26.07,8.18,-4.40,2.16,7.89,
1.601,12.72,-26.07,8.18,-4.21,2.00,8.02,
1.631,14.20,-25.63,8.63,-4.21,2.00,8.02,
1.632,14.20,-25.63,8.63,-3.99,1.82,8.11,
1.632,14.20,-25.63,8.63,-3.75,1.62,8.17,
1.633,15.69,-25.24,8.91,-3.75,1.62,8.17,
1.633,15.69,-25.24,8.91,-3.49,1.41,8.20,
1.634,17.24,-24.82,9.07,-3.49,1.41,8.20,
1.634,17.24,-24.82,9.07,-3.22,1.19,8.20,
1.635,18.50,-24.31,9.12,-3.22,1.19,8.20,
1.635,18.50,-24.31,9.12,-2.95,0.99,8.17,
1.635,19.48,-23.67,9.12,-2.95,0.99,8.17,
1.636,20.19,-22.89,9.09,-2.95,0.99,8.17,
1.636,20.19,-22.89,9.09,-2.67,0.80,8.11,
1.637,20.19,-22.89,9.09,-2.39,0.63,8.04,
1.637,20.76,-21.97,9.03,-2.39,0.63,8.04,
1.648,20.76,-21.97,9.03,-2.12,0.46,7.96,
1.649,21.11,-20.93,8.90,-2.12,0.46,7.96,
1.65,21.11,-20.93,8.90,-1.84,0.30,7.88,
1.65,21.40,-19.88,8.74,-1.84,0.30,7.88,
1.651,21.40,-19.88,8.74,-1.56,0.15,7.79,
1.651,21.63,-18.98,8.60,-1.56,0.15,7.79,
1.684,21.63,-18.98,8.60,-1.28,0.00,7.70,
1.684,21.75,-18.17,8.48,-1.28,0.00,7.70,
1.685,21.75,-18.17,8.48,-0.99,-0.14,7.62,
1.685,21.97,-17.33,8.27,-0.99,-0.14,7.62,
1.686,22.16,-16.28,7.87,-0.99,-0.14,7.62,
1.686,22.16,-16.28,7.87,-0.71,-0.28,7.53,
1.686,22.34,-15.18,7.31,-0.71,-0.28,7.53,
1.687,22.34,-15.18,7.31,-0.44,-0.42,7.44,
1.687,22.37,-14.19,6.69,-0.44,-0.42,7.44,
1.688,22.37,-14.19,6.69,-0.20,-0.56,7.33,
1.688,22.33,-13.16,5.94,-0.20,-0.56,7.33,
1.689,22.33,-13.16,5.94,0.01,-0.69,7.22,
1.689,22.22,-12.10,5.20,0.01,-0.69,7.22,
1.69,22.22,-12.10,5.20,0.19,-0.80,7.09,
1.69,22.22,-12.10,5.20,0.32,-0.91,6.97,
1.69,22.13,-11.10,4.53,0.32,-0.91,6.97,
1.694,22.05,-10.11,3.92,0.32,-0.91,6.97,
1.694,22.05,-10.11,3.92,0.42,-1.00,6.84,
1.698,21.88,-9.06,3.42,0.42,-1.00,6.84,
1.699,21.88,-9.06,3.42,0.47,-1.09,6.71,
1.703,21.60,-8.08,3.15,0.47,-1.09,6.71,
1.704,21.60,-8.08,3.15,0.50,-1.16,6.58,
1.712,21.70,-7.28,2.51,0.50,-1.16,6.58,
1.714,21.70,-7.28,2.51,0.50,-1.22,6.45,
1.714,21.66,-6.42,1.81,0.50,-1.22,6.45,
1.714,21.66,-6.42,1.81,0.47,-1.28,6.33,
1.718,21.56,-5.65,1.24,0.47,-1.28,6.33,
1.718,21.56,-5.65,1.24,0.38,-1.33,6.20,
1.739,21.56,-5.65,1.24,0.26,-1.34,6.07,
1.74,21.48,-4.76,0.85,0.26,-1.34,6.07,
1.741,21.53,-3.88,0.68,0.26,-1.34,6.07,
1.741,21.53,-3.88,0.68,0.09,-1.33,5.94,
1.741,21.67,-2.87,0.71,0.09,-1.33,5.94,
1.742,21.67,-2.87,0.71,-0.09,-1.29,5.82,
1.742,21.67,-2.87,0.71,-0.29,-1.22,5.69,
1.742,21.81,-1.98,0.87,-0.29,-1.22,5.69,
1.743,21.91,-1.12,1.12,-0.29,-1.22,5.69,
1.743,21.91,-1.12,1.12,-0.50,-1.11,5.55,
1.747,21.91,-1.12,1.12,-0.72,-0.98,5.41,
1.747,21.96,-0.36,1.44,-0.72,-0.98,5.41,
1.752,21.96,-0.36,1.44,-0.93,-0.80,5.26,
1.752,22.05,0.40,1.74,-0.93,-0.80,5.26,
1.757,22.10,1.10,2.01,-0.93,-0.80,5.26,
1.758,22.10,1.10,2.01,-1.15,-0.60,5.11,
1.762,22.10,1.10,2.01,-1.37,-0.37,4.96,
1.763,22.14,1.79,2.24,-1.37,-0.37,4.96,
1.767,22.14,1.79,2.24,-1.59,-0.12,4.81,
1.767,22.22,2.46,2.47,-1.59,-0.12,4.81,
1.771,22.22,2.46,2.47,-1.82,0.14,4.65,
1.771,22.26,3.14,2.66,-1.82,0.14,4.65,
1.78,22.26,3.14,2.66,-2.06,0.43,4.49,
1.781,22.24,3.80,2.83,-2.06,0.43,4.49,
1.782,22.24,3.80,2.83,-2.31,0.73,4.32,
1.783,22.20,4.41,3.01,-2.31,0.73,4.32,
1.786,22.09,4.89,3.12,-2.31,0.73,4.32,
1.787,22.09,4.89,3.12,-2.57,1.02,4.15,
1.822,22.09,4.89,3.12,-2.84,1.30,3.98,
1.822,21.87,5.31,3.26,-2.84,1.30,3.98,
1.823,21.52,5.59,3.42,-2.84,1.30,3.98,
1.823,21.52,5.59,3.42,-3.12,1.57,3.81,
1.824,21.11,5.86,3.69,-3.12,1.57,3.81,
1.824,21.11,5.86,3.69,-3.41,1.82,3.65,
1.824,21.11,5.86,3.69,-3.70,2.03,3.50,
1.825,20.59,6.16,4.10,-3.70,2.03,3.50,
1.826,20.59,6.16,4.10,-3.99,2.19,3.36,
1.826,19.99,6.44,4.64,-3.99,2.19,3.36,
1.826,19.99,6.44,4.64,-4.28,2.31,3.25,
1.827,19.62,6.66,5.34,-4.28,2.31,3.25,
1.827,19.62,6.66,5.34,-4.53,2.40,3.15,
1.827,19.63,6.65,6.26,-4.53,2.40,3.15,
1.828,20.03,6.34,7.44,-4.53,2.40,3.15,
1.828,20.03,6.34,7.44,-4.74,2.49,3.02,
1.83,20.58,5.83,8.81,-4.74,2.49,3.02,
1.83,20.58,5.83,8.81,-4.87,2.57,2.86,
1.835,20.58,5.83,8.81,-4.94,2.65,2.65,
1.835,21.16,5.27,10.23,-4.94,2.65,2.65,
1.84,21.16,5.27,10.23,-4.93,2.71,2.41,
1.841,21.55,4.69,11.63,-4.93,2.71,2.41,
1.845,21.70,4.30,12.86,-4.93,2.71,2.41,
1.846,21.70,4.30,12.86,-4.84,2.77,2.14,
1.88,21.56,4.17,14.06,-4.84,2.77,2.14,
1.881,21.56,4.17,14.06,-4.69,2.82,1.84,
1.881,21.56,4.17,14.06,-4.47,2.87,1.54,
1.882,21.11,4.27,15.18,-4.47,2.87,1.54,
1.882,21.11,4.27,15.18,-4.19,2.91,1.24,
1.883,20.46,4.49,16.20,-4.19,2.91,1.24,
1.883,20.46,4.49,16.20,-3.86,2.92,0.96,
1.884,19.59,4.74,16.97,-3.86,2.92,0.96,
1.884,19.59,4.74,16.97,-3.47,2.87,0.71,
1.885,18.67,5.00,17.61,-3.47,2.87,0.71,
1.885,17.70,5.23,18.12,-3.47,2.87,0.71,
1.886,17.70,5.23,18.12,-3.06,2.76,0.50,
1.886,17.70,5.23,18.12,-2.62,2.61,0.33,
1.887,16.84,5.44,18.49,-2.62,2.61,0.33,
1.887,16.10,5.61,18.67,-2.62,2.61,0.33,
1.888,16.10,5.61,18.67,-2.17,2.40,0.18,
1.888,16.10,5.61,18.67,-1.71,2.15,0.07,
1.889,15.39,5.73,18.64,-1.71,2.15,0.07,
1.894,15.39,5.73,18.64,-1.26,1.89,-0.01,
1.894,14.80,5.83,18.48,-1.26,1.89,-0.01,
1.898,14.80,5.83,18.48,-0.82,1.60,-0.08,
1.899,14.37,5.95,18.31,-0.82,1.60,-0.08,
1.903,14.37,5.95,18.31,-0.40,1.32,-0.13,
1.903,14.00,6.03,18.07,-0.40,1.32,-0.13,
1.912,14.00,6.03,18.07,0.01,1.03,-0.17,
1.913,13.85,6.06,17.79,0.01,1.03,-0.17,
1.913,13.86,6.08,17.53,0.01,1.03,-0.17,
1.914,13.86,6.08,17.53,0.40,0.75,-0.20,
1.919,13.96,6.01,17.22,0.40,0.75,-0.20,
1.92,13.96,6.01,17.22,0.78,0.48,-0.23,
1.946,13.96,6.01,17.22,1.15,0.23,-0.27,
1.947,14.16,5.94,16.86,1.15,0.23,-0.27,
1.947,14.16,5.94,16.86,1.51,0.01,-0.33,
1.948,14.32,5.82,16.47,1.51,0.01,-0.33,
1.948,14.44,5.73,16.03,1.51,0.01,-0.33,
1.948,14.44,5.73,16.03,1.86,-0.19,-0.38,
1.949,14.51,5.62,15.53,1.86,-0.19,-0.38,
1.949,14.51,5.62,15.53,2.19,-0.37,-0.45,
1.95,14.51,5.62,15.53,2.52,-0.53,-0.50,
1.95,14.62,5.54,15.06,2.52,-0.53,-0.50,
1.95,14.83,5.44,14.57,2.52,-0.53,-0.50,
1.951,14.83,5.44,14.57,2.83,-0.69,-0.55,
1.952,15.08,5.34,14.01,2.83,-0.69,-0.55,
1.952,15.08,5.34,14.01,3.13,-0.83,-0.58,
1.957,15.08,5.34,14.01,3.41,-0.98,-0.61,
1.958,15.44,5.21,13.36,3.41,-0.98,-0.61,
1.962,15.85,5.09,12.59,3.41,-0.98,-0.61,
1.963,15.85,5.09,12.59,3.67,-1.11,-0.63,
1.967,16.34,5.00,11.65,3.67,-1.11,-0.63,
1.967,16.34,5.00,11.65,3.90,-1.25,-0.67,
1.971,16.90,4.87,10.70,3.90,-1.25,-0.67,
1.972,16.90,4.87,10.70,4.08,-1.39,-0.72,
1.976,17.58,4.76,9.85,4.08,-1.39,-0.72,
1.977,17.58,4.76,9.85,4.23,-1.54,-0.79,
1.981,18.36,4.57,9.08,4.23,-1.54,-0.79,
1.981,18.36,4.57,9.08,4.34,-1.71,-0.89,
1.986,18.36,4.57,9.08,4.41,-1.89,-1.02,
1.987,19.18,4.29,8.38,4.41,-1.89,-1.02,
1.996,20.09,3.96,7.80,4.41,-1.89,-1.02,
1.996,20.09,3.96,7.80,4.45,-2.08,-1.20,
1.997,21.01,3.51,7.27,4.45,-2.08,-1.20,
1.997,21.01,3.51,7.27,4.48,-2.27,-1.42,
2.002,21.01,3.51,7.27,4.49,-2.47,-1.68,
2.003,21.88,2.89,6.87,4.49,-2.47,-1.68,
2.032,21.88,2.89,6.87,4.49,-2.65,-1.98,
2.033,22.55,2.20,6.49,4.49,-2.65,-1.98,
2.033,22.92,1.48,6.17,4.49,-2.65,-1.98,
2.034,22.92,1.48,6.17,4.47,-2.81,-2.31,
2.034,22.92,1.48,6.17,4.44,-2.94,-2.68,
2.035,23.04,0.82,5.85,4.44,-2.94,-2.68,
2.035,23.02,0.16,5.59,4.44,-2.94,-2.68,
2.036,23.02,0.16,5.59,4.39,-3.06,-3.06,
2.036,22.86,-0.57,5.35,4.39,-3.06,-3.06,
2.037,22.86,-0.57,5.35,4.33,-3.17,-3.44,
2.037,22.86,-0.57,5.35,4.26,-3.28,-3.81,
2.037,22.51,-1.21,5.17,4.26,-3.28,-3.81,
2.038,22.51,-1.21,5.17,4.17,-3.38,-4.17,
2.038,22.00,-1.94,5.07,4.17,-3.38,-4.17,
2.04,21.50,-2.69,4.80,4.17,-3.38,-4.17,
2.041,21.50,-2.69,4.80,4.08,-3.48,-4.51,
2.045,20.99,-3.50,4.53,4.08,-3.48,-4.51,
2.046,20.99,-3.50,4.53,3.96,-3.59,-4.82,
2.05,20.56,-4.41,4.27,3.96,-3.59,-4.82,
2.05,20.56,-4.41,4.27,3.83,-3.72,-5.12,
2.054,20.34,-5.46,3.99,3.83,-3.72,-5.12,
2.055,20.34,-5.46,3.99,3.67,-3.83,-5.38,
2.06,20.34,-5.46,3.99,3.48,-3.93,-5.63,
2.06,20.27,-6.59,3.70,3.48,-3.93,-5.63,
2.065,20.27,-6.59,3.70,3.27,-4.01,-5.86,
2.065,20.31,-7.77,3.65,3.27,-4.01,-5.86,
2.069,20.31,-7.77,3.65,3.05,-4.10,-6.08,
2.069,20.41,-9.00,3.73,3.05,-4.10,-6.08,
2.074,20.64,-10.36,3.85,3.05,-4.10,-6.08,
2.075,20.64,-10.36,3.85,2.82,-4.17,-6.28,
2.079,20.64,-10.36,3.85,2.61,-4.26,-6.47,
2.08,21.05,-11.85,4.05,2.61,-4.26,-6.47,
2.084,21.79,-13.52,4.31,2.61,-4.26,-6.47,
2.085,21.79,-13.52,4.31,2.40,-4.38,-6.64,
2.089,21.79,-13.52,4.31,2.20,-4.54,-6.80,
2.09,22.79,-15.42,4.52,2.20,-4.54,-6.80,
2.137,22.79,-15.42,4.52,2.00,-4.74,-6.95,
2.138,24.11,-17.47,4.78,2.00,-4.74,-6.95,
2.139,24.11,-17.47,4.78,1.78,-4.99,-7.09,
2.139,25.44,-19.41,5.14,1.78,-4.99,-7.09,
2.14,25.44,-19.41,5.14,1.54,-5.26,-7.21,
2.141,26.73,-21.01,5.60,1.54,-5.26,-7.21,
2.142,26.73,-21.01,5.60,1.28,-5.50,-7.33,
2.142,28.37,-22.39,5.95,1.28,-5.50,-7.33,
2.143,30.54,-23.62,6.08,1.28,-5.50,-7.33,
2.144,30.54,-23.62,6.08,1.00,-5.66,-7.48,
2.145,32.47,-24.57,5.69,1.00,-5.66,-7.48,
2.146,32.47,-24.57,5.69,0.67,-5.70,-7.67,
2.147,33.92,-25.87,4.68,0.67,-5.70,-7.67,
2.147,33.92,-25.87,4.68,0.25,-5.61,-7.96,
2.148,33.92,-25.87,4.68,-0.29,-5.36,-8.34,
2.149,34.44,-27.84,3.37,-0.29,-5.36,-8.34,
2.15,34.44,-27.84,3.37,-0.96,-4.94,-8.78,
2.15,34.06,-30.15,2.35,-0.96,-4.94,-8.78,
2.151,33.67,-31.10,2.04,-0.96,-4.94,-8.78,
2.152,33.67,-31.10,2.04,-1.76,-4.30,-9.29,
2.153,33.26,-31.35,2.65,-1.76,-4.30,-9.29,
2.154,33.26,-31.35,2.65,-2.61,-3.39,-9.86,
2.155,32.84,-31.65,3.91,-2.61,-3.39,-9.86,
2.156,32.84,-31.65,3.91,-3.43,-2.18,-10.49,
2.157,32.40,-32.00,6.09,-3.43,-2.18,-10.49,
2.158,32.40,-32.00,6.09,-4.15,-0.70,-11.15,
2.159,32.40,-32.00,6.09,-4.65,1.00,-11.80,
2.159,31.95,-32.40,8.74,-4.65,1.00,-11.80,
2.17,31.49,-32.86,11.15,-4.65,1.00,-11.80,
2.171,31.49,-32.86,11.15,-4.88,2.81,-12.36,
2.172,26.52,-33.35,12.81,-4.88,2.81,-12.36,
2.172,26.52,-33.35,12.81,-4.78,4.61,-12.75,
2.173,26.52,-33.35,12.81,-4.37,6.30,-12.93,
2.173,21.33,-33.88,13.30,-4.37,6.30,-12.93,
2.207,21.33,-33.88,13.30,-3.71,7.82,-12.88,
2.208,16.73,-34.41,12.23,-3.71,7.82,-12.88,
2.209,16.73,-34.41,12.23,-2.91,9.04,-12.61,
2.209,12.38,-34.95,10.27,-2.91,9.04,-12.61,
2.209,12.38,-34.95,10.27,-2.06,9.94,-12.09,
2.21,7.99,-35.47,8.28,-2.06,9.94,-12.09,
2.211,4.16,-35.97,6.46,-2.06,9.94,-12.09,
2.211,4.16,-35.97,6.46,-1.21,10.53,-11.33,
2.212,1.03,-36.43,4.50,-1.21,10.53,-11.33,
2.212,1.03,-36.43,4.50,-0.34,10.87,-10.34,
2.213,1.03,-36.43,4.50,0.51,10.96,-9.19,
2.213,-0.94,-36.83,1.98,0.51,10.96,-9.19,
2.214,-0.94,-36.83,1.98,1.28,10.80,-7.97,
2.214,-1.96,-37.18,-0.97,1.28,10.80,-7.97,
2.214,-2.03,-36.22,-3.75,1.28,10.80,-7.97,
2.215,-2.03,-36.22,-3.75,1.87,10.42,-6.77,
2.215,-2.03,-36.22,-3.75,2.25,9.89,-5.68,
2.216,-1.19,-33.58,-5.96,2.25,9.89,-5.68,
2.224,0.48,-31.43,-7.19,2.25,9.89,-5.68,
2.226,0.48,-31.43,-7.19,2.46,9.29,-4.71,
2.226,0.48,-31.43,-7.19,2.56,8.68,-3.93,
2.227,2.90,-29.68,-7.62,2.56,8.68,-3.93,
2.256,5.79,-28.49,-7.12,2.56,8.68,-3.93,
2.257,5.79,-28.49,-7.12,2.62,8.06,-3.35,
2.257,5.79,-28.49,-7.12,2.70,7.47,-2.98,
2.258,8.97,-27.58,-5.99,2.70,7.47,-2.98,
2.258,8.97,-27.58,-5.99,2.86,6.85,-2.83,
2.259,11.83,-26.57,-4.65,2.86,6.85,-2.83,
2.259,11.83,-26.57,-4.65,3.12,6.16,-2.89,
2.26,13.67,-25.50,-3.57,3.12,6.16,-2.89,
2.26,13.67,-25.50,-3.57,3.48,5.37,-3.14,
2.26,14.17,-24.47,-2.90,3.48,5.37,-3.14,
2.261,14.17,-24.47,-2.90,3.90,4.47,-3.49,
2.261,13.56,-23.64,-2.67,3.90,4.47,-3.49,
2.262,12.17,-23.10,-2.74,3.90,4.47,-3.49,
2.262,12.17,-23.10,-2.74,4.35,3.48,-3.89,
2.271,12.17,-23.10,-2.74,4.81,2.41,-4.29,
2.272,10.35,-23.01,-2.84,4.81,2.41,-4.29,
2.272,8.24,-23.29,-3.00,4.81,2.41,-4.29,
2.273,8.24,-23.29,-3.00,5.25,1.32,-4.66,
2.301,8.24,-23.29,-3.00,5.64,0.24,-4.98,
2.302,6.01,-23.79,-3.24,5.64,0.24,-4.98,
2.302,3.78,-24.32,-3.50,5.64,0.24,-4.98,
2.303,3.78,-24.32,-3.50,5.95,-0.82,-5.23,
2.303,3.78,-24.32,-3.50,6.21,-1.84,-5.40,
2.304,1.65,-24.74,-3.49,6.21,-1.84,-5.40,
2.304,0.01,-24.96,-3.54,6.21,-1.84,-5.40,
2.304,0.01,-24.96,-3.54,6.40,-2.79,-5.51,
2.305,0.01,-24.96,-3.54,6.53,-3.66,-5.55,
2.305,-1.08,-24.98,-3.48,6.53,-3.66,-5.55,
2.306,-1.08,-24.98,-3.48,6.59,-4.43,-5.57,
2.307,-1.63,-24.88,-3.34,6.59,-4.43,-5.57,
2.307,-1.63,-24.88,-3.34,6.60,-5.09,-5.57,
2.308,-1.76,-24.71,-3.19,6.60,-5.09,-5.57,
2.309,-1.68,-24.52,-3.10,6.60,-5.09,-5.57,
2.31,-1.68,-24.52,-3.10,6.56,-5.65,-5.58,
2.333,-1.55,-24.26,-3.18,6.56,-5.65,-5.58,
2.334,-1.55,-24.26,-3.18,6.45,-6.07,-5.61,
2.334,-1.49,-23.93,-3.49,6.45,-6.07,-5.61,
2.334,-1.49,-23.93,-3.49,6.28,-6.35,-5.65,
2.335,-1.49,-23.93,-3.49,6.02,-6.48,-5.72,
2.335,-1.64,-23.47,-3.97,6.02,-6.48,-5.72,
2.336,-1.64,-23.47,-3.97,5.67,-6.46,-5.79,
2.336,-1.95,-22.94,-4.58,5.67,-6.46,-5.79,
2.336,-2.40,-22.33,-5.22,5.67,-6.46,-5.79,
2.337,-2.40,-22.33,-5.22,5.23,-6.28,-5.84,
2.369,-2.40,-22.33,-5.22,4.70,-5.94,-5.86,
2.369,-2.84,-21.76,-5.72,4.70,-5.94,-5.86,
2.37,-3.10,-21.31,-6.05,4.70,-5.94,-5.86,
2.37,-3.10,-21.31,-6.05,4.10,-5.47,-5.85,
2.371,-3.16,-21.02,-6.19,4.10,-5.47,-5.85,
2.372,-3.16,-21.02,-6.19,3.45,-4.89,-5.82,
2.372,-3.11,-20.95,-6.16,3.45,-4.89,-5.82,
2.373,-3.11,-20.95,-6.16,2.80,-4.22,-5.77,
2.373,-3.07,-21.14,-5.92,2.80,-4.22,-5.77,
2.374,-3.07,-21.14,-5.92,2.16,-3.52,-5.74,
2.374,-3.07,-21.14,-5.92,1.54,-2.81,-5.71,
2.375,-3.14,-21.56,-5.63,1.54,-2.81,-5.71,
2.375,-3.14,-21.56,-5.63,0.97,-2.16,-5.67,
2.376,-3.47,-22.23,-5.13,0.97,-2.16,-5.67,
2.376,-3.47,-22.23,-5.13,0.48,-1.56,-5.61,
2.377,-3.77,-23.08,-4.72,0.48,-1.56,-5.61,
2.377,-4.20,-23.87,-4.30,0.48,-1.56,-5.61,
2.378,-4.20,-23.87,-4.30,0.05,-1.04,-5.53,
2.381,-4.91,-24.52,-3.78,0.05,-1.04,-5.53,
2.382,-4.91,-24.52,-3.78,-0.30,-0.56,-5.41,
2.386,-5.98,-24.55,-2.65,-0.30,-0.56,-5.41,
2.387,-5.98,-24.55,-2.65,-0.56,-0.13,-5.26,
2.397,-6.80,-24.58,-1.93,-0.56,-0.13,-5.26,
2.398,-6.80,-24.58,-1.93,-0.70,0.30,-5.07,
2.399,-8.09,-24.76,-1.68,-0.70,0.30,-5.07,
2.399,-8.09,-24.76,-1.68,-0.74,0.61,-4.85,
2.4,-9.68,-24.71,-1.47,-0.74,0.61,-4.85,
2.401,-9.68,-24.71,-1.47,-0.78,0.71,-4.55,
2.405,-11.16,-24.43,-1.30,-0.78,0.71,-4.55,
2.406,-11.16,-24.43,-1.30,-0.79,0.70,-4.17,
2.436,-11.16,-24.43,-1.30,-0.75,0.63,-3.72,
2.437,-12.10,-23.98,-1.05,-0.75,0.63,-3.72,
2.438,-12.10,-23.98,-1.05,-0.66,0.52,-3.24,
2.438,-12.57,-23.38,-0.62,-0.66,0.52,-3.24,
2.439,-12.57,-23.38,-0.62,-0.52,0.36,-2.77,
2.439,-12.64,-22.78,-0.13,-0.52,0.36,-2.77,
2.439,-12.64,-22.78,-0.13,-0.33,0.14,-2.33,
2.44,-12.64,-22.17,0.41,-0.33,0.14,-2.33,
2.44,-12.64,-22.17,0.41,-0.10,-0.13,-1.92,
2.441,-12.78,-21.50,0.77,-0.10,-0.13,-1.92,
2.441,-12.78,-21.50,0.77,0.14,-0.42,-1.55,
2.442,-13.00,-20.86,0.98,0.14,-0.42,-1.55,
2.443,-13.00,-20.86,0.98,0.38,-0.70,-1.19,
2.443,-13.19,-20.39,0.96,0.38,-0.70,-1.19,
2.467,-13.19,-20.39,0.96,0.60,-0.93,-0.85,
2.468,-13.23,-20.09,0.86,0.60,-0.93,-0.85,
2.469,-12.87,-20.01,0.75,0.60,-0.93,-0.85,
2.47,-12.87,-20.01,0.75,0.81,-1.11,-0.50,
2.47,-12.24,-20.06,0.68,0.81,-1.11,-0.50,
2.47,-12.24,-20.06,0.68,0.99,-1.22,-0.16,
2.471,-12.24,-20.06,0.68,1.15,-1.27,0.17,
2.471,-11.47,-20.13,0.53,1.15,-1.27,0.17,
2.472,-10.81,-20.10,0.26,1.15,-1.27,0.17,
2.472,-10.81,-20.10,0.26,1.30,-1.28,0.46,
2.472,-10.81,-20.10,0.26,1.42,-1.25,0.72,
2.473,-10.32,-19.98,-0.10,1.42,-1.25,0.72,
2.479,-10.07,-19.78,-0.49,1.42,-1.25,0.72,
2.48,-10.07,-19.78,-0.49,1.50,-1.20,0.95,
2.48,-9.87,-19.60,-0.97,1.50,-1.20,0.95,
2.481,-9.87,-19.60,-0.97,1.56,-1.12,1.17,
2.484,-9.87,-19.60,-0.97,1.58,-1.04,1.39,
2.484,-9.73,-19.56,-1.41,1.58,-1.04,1.39,
2.488,-9.46,-19.68,-1.85,1.58,-1.04,1.39,
2.489,-9.46,-19.68,-1.85,1.58,-0.95,1.61,
2.499,-9.46,-19.68,-1.85,1.54,-0.87,1.83,
2.5,-9.08,-19.82,-2.27,1.54,-0.87,1.83,
2.501,-8.65,-20.02,-2.63,1.54,-0.87,1.83,
2.501,-8.65,-20.02,-2.63,1.47,-0.79,2.06,
2.503,-8.65,-20.02,-2.63,1.37,-0.72,2.27,
2.503,-8.19,-20.17,-3.02,1.37,-0.72,2.27,
2.532,-7.87,-20.34,-3.26,1.37,-0.72,2.27,
2.532,-7.87,-20.34,-3.26,1.24,-0.65,2.49,
2.533,-7.59,-20.55,-3.52,1.24,-0.65,2.49,
2.533,-7.59,-20.55,-3.52,1.08,-0.57,2.71,
2.533,-7.50,-20.79,-3.72,1.08,-0.57,2.71,
2.534,-7.50,-20.79,-3.72,0.90,-0.50,2.93,
2.534,-7.50,-20.79,-3.72,0.70,-0.42,3.16,
2.535,-7.59,-21.22,-3.79,0.70,-0.42,3.16,
2.535,-7.59,-21.22,-3.79,0.50,-0.35,3.43,
2.535,-7.93,-21.88,-3.85,0.50,-0.35,3.43,
2.536,-7.93,-21.88,-3.85,0.30,-0.32,3.73,
2.536,-8.37,-22.45,-4.06,0.30,-0.32,3.73,
2.537,-8.37,-22.45,-4.06,0.10,-0.35,4.08,
2.537,-8.90,-22.76,-4.38,0.10,-0.35,4.08,
2.542,-9.34,-22.88,-4.61,0.10,-0.35,4.08,
2.543,-9.34,-22.88,-4.61,-0.14,-0.43,4.46,
2.547,-9.34,-22.88,-4.61,-0.40,-0.56,4.89,
2.548,-9.47,-22.96,-4.66,-0.40,-0.56,4.89,
2.552,-9.47,-22.96,-4.66,-0.68,-0.70,5.33,
2.552,-9.09,-23.15,-4.46,-0.68,-0.70,5.33,
2.556,-8.11,-23.53,-4.11,-0.68,-0.70,5.33,
2.557,-8.11,-23.53,-4.11,-0.96,-0.84,5.78,
2.564,-8.11,-23.53,-4.11,-1.23,-0.98,6.21,
2.566,-6.97,-24.07,-3.76,-1.23,-0.98,6.21,
2.567,-5.57,-24.72,-3.34,-1.23,-0.98,6.21,
2.567,-5.57,-24.72,-3.34,-1.49,-1.11,6.62,
2.571,-4.22,-25.41,-2.76,-1.49,-1.11,6.62,
2.572,-4.22,-25.41,-2.76,-1.75,-1.19,7.02,
2.597,-4.22,-25.41,-2.76,-1.99,-1.22,7.39,
2.598,-2.92,-26.02,-2.18,-1.99,-1.22,7.39,
2.631,-1.68,-26.52,-1.51,-1.99,-1.22,7.39,
2.632,-1.68,-26.52,-1.51,-2.24,-1.18,7.75,
2.633,-0.44,-27.02,-0.83,-2.24,-1.18,7.75,
2.633,-0.44,-27.02,-0.83,-2.47,-1.08,8.08,
2.634,-0.44,-27.02,-0.83,-2.69,-0.93,8.39,
2.634,0.79,-27.52,-0.09,-2.69,-0.93,8.39,
2.635,0.79,-27.52,-0.09,-2.89,-0.72,8.69,
2.635,1.82,-27.90,0.72,-2.89,-0.72,8.69,
2.636,2.80,-28.17,1.56,-2.89,-0.72,8.69,
2.636,2.80,-28.17,1.56,-3.05,-0.48,8.97,
2.637,3.77,-28.55,2.34,-3.05,-0.48,8.97,
2.637,3.77,-28.55,2.34,-3.18,-0.20,9.23,
2.638,4.86,-29.04,3.18,-3.18,-0.20,9.23,
2.638,4.86,-29.04,3.18,-3.29,0.11,9.49,
2.639,6.16,-29.45,4.04,-3.29,0.11,9.49,
2.639,6.16,-29.45,4.04,-3.38,0.45,9.74,
2.64,7.62,-29.67,4.97,-3.38,0.45,9.74,
2.64,7.62,-29.67,4.97,-3.43,0.82,9.96,
2.641,9.19,-29.57,5.94,-3.43,0.82,9.96,
2.641,9.19,-29.57,5.94,-3.44,1.17,10.14,
2.642,9.19,-29.57,5.94,-3.41,1.48,10.26,
2.642,10.71,-29.17,6.83,-3.41,1.48,10.26,
2.643,10.71,-29.17,6.83,-3.32,1.74,10.32,
2.643,11.98,-28.70,7.36,-3.32,1.74,10.32,
2.644,13.04,-28.42,7.52,-3.32,1.74,10.32,
2.645,13.04,-28.42,7.52,-3.19,1.94,10.31,
2.645,13.04,-28.42,7.52,-3.02,2.07,10.26,
2.645,14.23,-28.27,7.32,-3.02,2.07,10.26,
2.659,14.23,-28.27,7.32,-2.85,2.16,10.19,
2.66,15.59,-28.17,6.87,-2.85,2.16,10.19,
2.661,15.59,-28.17,6.87,-2.66,2.20,10.09,
2.661,17.03,-28.04,6.25,-2.66,2.20,10.09,
2.662,18.54,-27.74,5.49,-2.66,2.20,10.09,
2.662,18.54,-27.74,5.49,-2.50,2.22,9.96,
2.696,19.97,-27.44,4.60,-2.50,2.22,9.96,
2.697,19.97,-27.44,4.60,-2.35,2.19,9.78,
2.697,19.97,-27.44,4.60,-2.24,2.15,9.56,
2.698,21.21,-27.15,3.57,-2.24,2.15,9.56,
2.698,22.10,-26.83,2.50,-2.24,2.15,9.56,
2.699,22.10,-26.83,2.50,-2.17,2.07,9.31,
2.699,22.67,-26.57,1.30,-2.17,2.07,9.31,
2.699,22.67,-26.57,1.30,-2.15,1.96,9.05,
2.7,22.96,-26.28,0.21,-2.15,1.96,9.05,
2.7,22.96,-26.28,0.21,-2.20,1.82,8.79,
2.701,22.98,-26.03,-0.74,-2.20,1.82,8.79,
2.701,22.98,-26.03,-0.74,-2.30,1.64,8.55,
2.701,22.98,-26.03,-0.74,-2.46,1.41,8.34,
2.702,22.80,-25.62,-1.46,-2.46,1.41,8.34,
2.702,22.80,-25.62,-1.46,-2.67,1.15,8.15,
2.703,22.45,-25.17,-1.94,-2.67,1.15,8.15,
2.703,22.45,-25.17,-1.94,-2.91,0.86,8.00,
2.703,21.93,-24.60,-2.05,-2.91,0.86,8.00,
2.728,21.93,-24.60,-2.05,-3.18,0.56,7.88,
2.729,21.47,-23.87,-1.89,-3.18,0.56,7.88,
2.73,21.47,-23.87,-1.89,-3.45,0.23,7.79,
2.73,21.18,-23.21,-1.30,-3.45,0.23,7.79,
2.73,21.18,-23.21,-1.30,-3.70,-0.10,7.72,
2.731,21.22,-22.67,-0.36,-3.70,-0.10,7.72,
2.731,21.22,-22.67,-0.36,-3.90,-0.43,7.65,
2.732,21.47,-22.20,0.71,-3.90,-0.43,7.65,
2.732,21.47,-22.20,0.71,-4.06,-0.76,7.58,
2.733,21.91,-21.70,1.77,-4.06,-0.76,7.58,
2.733,21.91,-21.70,1.77,-4.17,-1.07,7.49,
2.734,22.36,-21.04,2.81,-4.17,-1.07,7.49,
2.737,22.36,-21.04,2.81,-4.24,-1.36,7.37,
2.738,22.63,-20.08,3.80,-4.24,-1.36,7.37,
2.758,22.74,-19.11,4.64,-4.24,-1.36,7.37,
2.76,22.74,-19.11,4.64,-4.28,-1.61,7.22,
2.761,22.71,-18.13,5.40,-4.28,-1.61,7.22,
2.761,22.71,-18.13,5.40,-4.30,-1.84,7.04,
2.762,22.49,-17.09,6.17,-4.30,-1.84,7.04,
2.762,22.49,-17.09,6.17,-4.29,-2.02,6.83,
2.763,22.09,-16.09,6.97,-4.29,-2.02,6.83,
2.763,22.09,-16.09,6.97,-4.26,-2.17,6.61,
2.764,21.56,-15.10,7.88,-4.26,-2.17,6.61,
2.764,21.56,-15.10,7.88,-4.21,-2.29,6.39,
2.767,21.03,-14.16,8.84,-4.21,-2.29,6.39,
2.767,21.03,-14.16,8.84,-4.13,-2.37,6.17,
2.771,20.29,-13.31,9.65,-4.13,-2.37,6.17,
2.772,20.29,-13.31,9.65,-4.03,-2.44,5.96,
2.777,20.29,-13.31,9.65,-3.89,-2.49,5.79,
2.778,19.86,-12.50,10.58,-3.89,-2.49,5.79,
2.781,19.86,-12.50,10.58,-3.71,-2.49,5.62,
2.782,19.43,-11.78,11.56,-3.71,-2.49,5.62,
2.786,19.43,-11.78,11.56,-3.49,-2.44,5.46,
2.787,19.02,-11.04,12.55,-3.49,-2.44,5.46,
2.798,19.02,-11.04,12.55,-3.22,-2.36,5.32,
2.799,18.55,-10.38,13.52,-3.22,-2.36,5.32,
2.799,18.06,-9.67,14.26,-3.22,-2.36,5.32,
2.8,18.06,-9.67,14.26,-2.90,-2.26,5.20,
2.801,18.06,-9.67,14.26,-2.55,-2.14,5.11,
2.801,17.62,-9.00,14.74,-2.55,-2.14,5.11,
2.805,17.62,-9.00,14.74,-2.16,-1.99,5.04,
2.806,17.29,-8.30,14.94,-2.16,-1.99,5.04,
2.838,17.29,-8.30,14.94,-1.77,-1.80,4.99,
2.839,17.12,-7.65,14.91,-1.77,-1.80,4.99,
2.84,17.00,-6.87,14.71,-1.77,-1.80,4.99,
2.84,17.00,-6.87,14.71,-1.36,-1.59,4.94,
2.841,16.88,-6.15,14.28,-1.36,-1.59,4.94,
2.841,16.88,-6.15,14.28,-0.97,-1.37,4.88,
2.874,16.88,-6.15,14.28,-0.60,-1.13,4.83,
2.875,16.83,-5.39,13.61,-0.60,-1.13,4.83,
2.875,16.84,-4.74,12.85,-0.60,-1.13,4.83,
2.876,16.84,-4.74,12.85,-0.26,-0.89,4.76,
2.876,16.83,-4.12,12.00,-0.26,-0.89,4.76,
2.877,16.83,-4.12,12.00,0.04,-0.65,4.70,
2.877,16.83,-3.50,11.10,0.04,-0.65,4.70,
2.878,16.83,-3.50,11.10,0.29,-0.40,4.63,
2.879,16.90,-2.92,10.15,0.29,-0.40,4.63,
2.879,16.90,-2.92,10.15,0.50,-0.16,4.56,
2.88,16.90,-2.92,10.15,0.67,0.08,4.47,
2.88,16.95,-2.36,9.25,0.67,0.08,4.47,
2.88,17.08,-1.84,8.41,0.67,0.08,4.47,
2.881,17.08,-1.84,8.41,0.78,0.30,4.38,
2.881,17.22,-1.37,7.62,0.78,0.30,4.38,
2.882,17.22,-1.37,7.62,0.86,0.51,4.28,
2.882,17.22,-1.37,7.62,0.90,0.69,4.18,
2.882,17.41,-0.87,6.90,0.90,0.69,4.18,
2.883,17.41,-0.87,6.90,0.92,0.86,4.06,
2.883,17.59,-0.36,6.26,0.92,0.86,4.06,
2.883,17.73,0.15,5.67,0.92,0.86,4.06,
2.884,17.73,0.15,5.67,0.91,1.01,3.92,
2.884,17.73,0.15,5.67,0.88,1.13,3.77,
2.885,17.82,0.73,5.12,0.88,1.13,3.77,
2.885,17.86,1.24,4.64,0.88,1.13,3.77,
2.885,17.86,1.24,4.64,0.83,1.23,3.60,
2.888,17.86,1.24,4.64,0.77,1.31,3.43,
2.889,17.86,1.67,4.21,0.77,1.31,3.43,
2.9,17.78,2.11,3.84,0.77,1.31,3.43,
2.901,17.78,2.11,3.84,0.69,1.36,3.24,
2.902,17.63,2.59,3.53,0.69,1.36,3.24,
2.902,17.63,2.59,3.53,0.61,1.40,3.04,
2.906,17.63,2.59,3.53,0.51,1.43,2.85,
2.906,17.45,3.03,3.25,0.51,1.43,2.85,
2.908,17.45,3.03,3.25,0.41,1.45,2.65,
2.908,17.21,3.46,3.01,0.41,1.45,2.65,
2.939,17.21,3.46,3.01,0.30,1.46,2.46,
2.94,16.79,3.87,2.79,0.30,1.46,2.46,
2.94,16.79,3.87,2.79,0.19,1.48,2.28,
2.94,16.14,4.22,2.53,0.19,1.48,2.28,
2.941,15.39,4.47,2.20,0.19,1.48,2.28,
2.941,15.39,4.47,2.20,0.08,1.49,2.11,
2.941,15.39,4.47,2.20,-0.06,1.50,1.98,
2.942,14.74,4.69,1.95,-0.06,1.50,1.98,
2.942,14.74,4.69,1.95,-0.21,1.50,1.86,
2.943,14.17,4.83,1.69,-0.21,1.50,1.86,
2.943,14.17,4.83,1.69,-0.37,1.48,1.76,
2.944,13.69,4.95,1.54,-0.37,1.48,1.76,
2.944,13.30,5.11,1.53,-0.37,1.48,1.76,
2.944,13.30,5.11,1.53,-0.54,1.44,1.68,
2.947,12.96,5.25,1.70,-0.54,1.44,1.68,
2.948,12.96,5.25,1.70,-0.70,1.39,1.62,
2.953,12.96,5.25,1.70,-0.86,1.33,1.56,
2.954,12.69,5.36,1.99,-0.86,1.33,1.56,
2.957,12.69,5.36,1.99,-1.01,1.26,1.51,
2.957,12.50,5.45,2.34,-1.01,1.26,1.51,
2.962,12.43,5.41,2.79,-1.01,1.26,1.51,
2.963,12.43,5.41,2.79,-1.14,1.17,1.46,
2.967,12.39,5.38,3.31,-1.14,1.17,1.46,
2.967,12.39,5.38,3.31,-1.25,1.08,1.43,
2.971,12.51,5.33,3.88,-1.25,1.08,1.43,
2.971,12.51,5.33,3.88,-1.32,0.96,1.39,
2.977,12.64,5.31,4.51,-1.32,0.96,1.39,
2.978,12.64,5.31,4.51,-1.38,0.85,1.36,
2.981,12.84,5.32,5.12,-1.38,0.85,1.36,
2.982,12.84,5.32,5.12,-1.40,0.74,1.34,
2.986,12.84,5.32,5.12,-1.40,0.64,1.31,
2.986,13.06,5.34,5.64,-1.40,0.64,1.31,
2.991,13.21,5.32,6.04,-1.40,0.64,1.31,
2.992,13.21,5.32,6.04,-1.37,0.55,1.28,
2.996,13.45,5.39,6.42,-1.37,0.55,1.28,
2.996,13.45,5.39,6.42,-1.33,0.48,1.26,
3.001,13.74,5.49,6.73,-1.33,0.48,1.26,
3.002,13.74,5.49,6.73,-1.28,0.40,1.25,
3.006,14.04,5.56,7.01,-1.28,0.40,1.25,
3.007,14.04,5.56,7.01,-1.22,0.34,1.23,
3.021,14.04,5.56,7.01,-1.15,0.29,1.21,
3.022,14.34,5.63,7.31,-1.15,0.29,1.21,
3.023,14.65,5.82,7.60,-1.15,0.29,1.21,
3.023,14.65,5.82,7.60,-1.07,0.27,1.19,
3.024,14.91,6.12,7.84,-1.07,0.27,1.19,
3.025,14.91,6.12,7.84,-1.00,0.26,1.17,
3.026,14.91,6.12,7.84,-0.92,0.25,1.14,
3.026,15.22,6.49,8.04,-0.92,0.25,1.14,
3.063,15.22,6.49,8.04,-0.84,0.23,1.09,
3.064,15.49,6.89,8.28,-0.84,0.23,1.09,
3.064,15.73,7.35,8.43,-0.84,0.23,1.09,
3.065,15.73,7.35,8.43,-0.76,0.21,1.04,
3.066,15.98,7.83,8.61,-0.76,0.21,1.04,
3.066,15.98,7.83,8.61,-0.68,0.17,0.98,
3.067,15.98,7.83,8.61,-0.61,0.11,0.91,
3.067,16.33,8.29,8.75,-0.61,0.11,0.91,
3.067,16.33,8.29,8.75,-0.54,0.01,0.84,
3.068,16.68,8.70,9.00,-0.54,0.01,0.84,
3.069,17.33,8.97,9.34,-0.54,0.01,0.84,
3.069,17.33,8.97,9.34,-0.47,-0.09,0.76,
3.07,18.23,9.07,9.82,-0.47,-0.09,0.76,
3.07,18.23,9.07,9.82,-0.40,-0.20,0.66,
3.071,19.39,8.91,10.40,-0.40,-0.20,0.66,
3.071,19.39,8.91,10.40,-0.31,-0.30,0.51,
3.104,20.56,8.59,11.04,-0.31,-0.30,0.51,
3.105,20.56,8.59,11.04,-0.19,-0.37,0.31,
3.105,21.65,8.16,11.68,-0.19,-0.37,0.31,
3.106,21.65,8.16,11.68,-0.03,-0.44,0.05,
3.106,22.49,7.65,12.22,-0.03,-0.44,0.05,
3.107,22.49,7.65,12.22,0.18,-0.48,-0.25,
3.107,23.05,7.08,12.57,0.18,-0.48,-0.25,
3.108,23.05,7.08,12.57,0.43,-0.49,-0.58,
3.109,23.37,6.38,12.44,0.43,-0.49,-0.58,
3.109,23.37,6.38,12.44,0.70,-0.51,-0.94,
3.11,23.37,6.05,12.37,0.70,-0.51,-0.94,
3.11,23.37,6.05,12.37,0.98,-0.53,-1.29,
3.111,23.25,5.54,12.07,0.98,-0.53,-1.29,
3.111,23.25,5.54,12.07,1.29,-0.52,-1.63,
3.112,23.02,4.97,11.59,1.29,-0.52,-1.63,
3.112,23.02,4.97,11.59,1.61,-0.50,-1.97,
3.113,22.58,4.27,10.95,1.61,-0.50,-1.97,
3.114,22.58,4.27,10.95,1.93,-0.50,-2.29,
3.114,22.09,3.59,10.15,1.93,-0.50,-2.29,
3.115,22.09,3.59,10.15,2.22,-0.54,-2.58,
3.117,22.09,3.59,10.15,2.47,-0.63,-2.85,
3.118,21.57,2.88,9.24,2.47,-0.63,-2.85,
3.123,21.57,2.88,9.24,2.66,-0.75,-3.11,
3.124,21.04,2.20,8.28,2.66,-0.75,-3.11,
3.133,21.04,2.20,8.28,2.79,-0.89,-3.35,
3.134,20.57,1.49,7.35,2.79,-0.89,-3.35,
3.135,20.13,0.82,6.51,2.79,-0.89,-3.35,
3.135,20.13,0.82,6.51,2.87,-1.02,-3.58,
3.137,20.13,0.82,6.51,2.90,-1.15,-3.80,
3.137,19.73,0.23,5.78,2.90,-1.15,-3.80,
3.143,19.35,-0.37,5.27,2.90,-1.15,-3.80,
3.143,19.35,-0.37,5.27,2.89,-1.27,-4.01,
3.161,19.35,-0.37,5.27,2.86,-1.38,-4.22,
3.162,18.99,-0.99,4.90,2.86,-1.38,-4.22,
3.163,18.56,-1.60,4.68,2.86,-1.38,-4.22,
3.163,18.56,-1.60,4.68,2.80,-1.49,-4.42,
3.164,18.56,-1.60,4.68,2.73,-1.58,-4.60,
3.164,18.10,-2.17,4.54,2.73,-1.58,-4.60,
3.164,18.10,-2.17,4.54,2.65,-1.65,-4.77,
3.165,17.71,-2.79,4.49,2.65,-1.65,-4.77,
3.166,17.51,-3.39,4.50,2.65,-1.65,-4.77,
3.167,17.51,-3.39,4.50,2.56,-1.73,-4.94,
3.171,17.38,-4.10,4.58,2.56,-1.73,-4.94,
3.172,17.38,-4.10,4.58,2.47,-1.81,-5.10,
3.176,17.39,-4.94,4.72,2.47,-1.81,-5.10,
3.176,17.39,-4.94,4.72,2.38,-1.88,-5.26,
3.181,17.42,-5.84,4.86,2.38,-1.88,-5.26,
3.182,17.42,-5.84,4.86,2.30,-1.96,-5.42,
3.186,17.46,-6.76,5.09,2.30,-1.96,-5.42,
3.187,17.46,-6.76,5.09,2.23,-2.03,-5.58,
3.191,17.54,-7.66,5.32,2.23,-2.03,-5.58,
3.192,17.54,-7.66,5.32,2.18,-2.09,-5.74,
3.196,17.56,-8.62,5.54,2.18,-2.09,-5.74,
3.197,17.56,-8.62,5.54,2.14,-2.13,-5.90,
3.201,17.56,-8.62,5.54,2.11,-2.17,-6.05,
3.201,17.69,-9.58,5.70,2.11,-2.17,-6.05,
3.205,17.84,-10.60,5.77,2.11,-2.17,-6.05,
3.206,17.84,-10.60,5.77,2.10,-2.20,-6.21,
3.217,17.84,-10.60,5.77,2.10,-2.23,-6.35,
3.218,17.93,-11.60,5.82,2.10,-2.23,-6.35,
3.219,17.93,-11.60,5.82,2.09,-2.26,-6.49,
3.219,18.12,-12.61,5.91,2.09,-2.26,-6.49,
3.22,18.12,-12.61,5.91,2.10,-2.28,-6.64,
3.22,18.36,-13.67,5.97,2.10,-2.28,-6.64,
3.225,18.55,-14.76,5.88,2.10,-2.28,-6.64,
3.225,18.55,-14.76,5.88,2.11,-2.30,-6.78,
3.26,18.55,-14.76,5.88,2.11,-2.33,-6.91,
3.261,18.80,-15.86,5.66,2.11,-2.33,-6.91,
3.261,19.08,-16.96,5.38,2.11,-2.33,-6.91,
3.262,19.08,-16.96,5.38,2.10,-2.36,-7.04,
3.263,19.37,-18.07,5.12,2.10,-2.36,-7.04,
3.263,19.37,-18.07,5.12,2.08,-2.39,-7.17,
3.263,19.62,-19.14,4.95,2.08,-2.39,-7.17,
3.264,19.62,-19.14,4.95,2.04,-2.42,-7.29,
3.264,19.83,-20.04,4.78,2.04,-2.42,-7.29,
3.265,19.83,-20.04,4.78,2.00,-2.45,-7.41,
3.266,19.97,-20.84,4.69,2.00,-2.45,-7.41,
3.266,19.97,-20.84,4.69,1.95,-2.45,-7.52,
3.267,19.99,-21.50,4.65,1.95,-2.45,-7.52,
3.267,19.99,-21.50,4.65,1.89,-2.43,-7.63,
3.268,20.00,-22.14,4.51,1.89,-2.43,-7.63,
3.268,20.00,-22.14,4.51,1.84,-2.38,-7.72,
3.269,19.96,-22.82,4.28,1.84,-2.38,-7.72,
3.269,19.96,-22.82,4.28,1.79,-2.31,-7.81,
3.273,19.96,-22.82,4.28,1.74,-2.21,-7.90,
3.274,19.92,-23.49,3.97,1.74,-2.21,-7.90,
3.279,19.92,-23.49,3.97,1.68,-2.08,-7.98,
3.28,19.76,-24.10,3.60,1.68,-2.08,-7.98,
3.284,19.51,-24.62,3.33,1.68,-2.08,-7.98,
3.285,19.51,-24.62,3.33,1.61,-1.91,-8.05,
3.288,19.51,-24.62,3.33,1.53,-1.72,-8.12,
3.289,19.19,-25.06,3.02,1.53,-1.72,-8.12,
3.293,19.19,-25.06,3.02,1.45,-1.51,-8.18,
3.294,18.77,-25.48,2.76,1.45,-1.51,-8.18,
3.298,18.77,-25.48,2.76,1.37,-1.28,-8.22,
3.299,18.33,-25.82,2.46,1.37,-1.28,-8.22,
3.303,18.33,-25.82,2.46,1.30,-1.04,-8.26,
3.304,17.95,-26.17,2.13,1.30,-1.04,-8.26,
3.308,17.95,-26.17,2.13,1.21,-0.80,-8.28,
3.309,17.49,-26.49,1.84,1.21,-0.80,-8.28,
3.349,17.05,-26.79,1.68,1.21,-0.80,-8.28,
3.35,17.05,-26.79,1.68,1.13,-0.56,-8.30,
3.351,16.68,-27.06,1.50,1.13,-0.56,-8.30,
3.352,16.68,-27.06,1.50,1.06,-0.32,-8.30,
3.352,16.68,-27.06,1.50,1.01,-0.06,-8.31,
3.353,16.33,-27.46,1.24,1.01,-0.06,-8.31,
3.354,16.33,-27.46,1.24,0.98,0.16,-8.31,
3.355,15.79,-27.75,1.01,0.98,0.16,-8.31,
3.355,15.79,-27.75,1.01,0.93,0.36,-8.28,
3.356,15.04,-27.92,0.65,0.93,0.36,-8.28,
3.356,14.14,-27.92,0.33,0.93,0.36,-8.28,
3.357,14.14,-27.92,0.33,0.88,0.54,-8.23,
3.358,14.14,-27.92,0.33,0.82,0.71,-8.15,
3.358,13.25,-27.73,0.03,0.82,0.71,-8.15,
3.359,12.33,-27.44,-0.23,0.82,0.71,-8.15,
3.36,12.33,-27.44,-0.23,0.77,0.88,-8.05,
3.36,11.38,-27.14,-0.40,0.77,0.88,-8.05,
3.361,11.38,-27.14,-0.40,0.71,1.04,-7.93,
3.362,10.52,-26.82,-0.47,0.71,1.04,-7.93,
3.362,10.52,-26.82,-0.47,0.66,1.19,-7.82,
3.363,9.57,-26.48,-0.48,0.66,1.19,-7.82,
3.363,9.57,-26.48,-0.48,0.62,1.32,-7.69,
3.373,8.59,-26.05,-0.47,0.62,1.32,-7.69,
3.374,8.59,-26.05,-0.47,0.60,1.42,-7.57,
3.375,7.57,-25.60,-0.49,0.60,1.42,-7.57,
3.375,7.57,-25.60,-0.49,0.57,1.47,-7.44,
3.376,6.61,-25.21,-0.59,0.57,1.47,-7.44,
3.412,6.61,-25.21,-0.59,0.55,1.48,-7.30,
3.413,5.76,-24.88,-0.65,0.55,1.48,-7.30,
3.413,5.76,-24.88,-0.65,0.53,1.46,-7.15,
3.414,4.91,-24.53,-0.67,0.53,1.46,-7.15,
3.414,4.91,-24.53,-0.67,0.49,1.41,-7.00,
3.414,4.91,-24.53,-0.67,0.46,1.35,-6.86,
3.415,4.03,-24.08,-0.62,0.46,1.35,-6.86,
3.415,3.31,-23.67,-0.48,0.46,1.35,-6.86,
3.415,3.31,-23.67,-0.48,0.42,1.29,-6.71,
3.416,2.73,-23.36,-0.26,0.42,1.29,-6.71,
3.416,2.73,-23.36,-0.26,0.39,1.22,-6.55,
3.416,2.25,-23.00,0.04,0.39,1.22,-6.55,
3.417,2.25,-23.00,0.04,0.38,1.14,-6.39,
3.417,2.25,-23.00,0.04,0.38,1.04,-6.23,
3.417,1.78,-22.73,0.37,0.38,1.04,-6.23,
3.418,1.36,-22.35,0.66,0.38,1.04,-6.23,
3.418,1.36,-22.35,0.66,0.39,0.93,-6.06,
3.42,1.19,-22.06,0.96,0.39,0.93,-6.06,
3.42,1.19,-22.06,0.96,0.40,0.82,-5.89,
3.425,1.19,-22.06,0.96,0.43,0.69,-5.73,
3.426,1.02,-21.94,1.26,0.43,0.69,-5.73,
3.43,1.02,-21.94,1.26,0.47,0.56,-5.58,
3.431,0.88,-21.90,1.65,0.47,0.56,-5.58,
3.435,0.88,-21.90,1.65,0.53,0.44,-5.44,
3.435,0.72,-21.81,2.01,0.53,0.44,-5.44,
3.44,0.72,-21.81,2.01,0.61,0.30,-5.30,
3.441,0.53,-21.71,2.30,0.61,0.30,-5.30,
3.456,0.53,-21.71,2.30,0.71,0.15,-5.17,
3.457,0.31,-21.52,2.61,0.71,0.15,-5.17,
3.458,0.31,-21.52,2.61,0.82,-0.02,-5.04,
3.459,0.20,-21.30,2.90,0.82,-0.02,-5.04,
3.46,0.12,-21.10,3.12,0.82,-0.02,-5.04,
3.46,0.12,-21.10,3.12,0.94,-0.20,-4.91,
3.461,0.12,-21.10,3.12,1.08,-0.40,-4.79,
3.462,0.15,-20.83,3.35,1.08,-0.40,-4.79,
3.517,0.25,-20.61,3.51,1.08,-0.40,-4.79,
3.518,0.25,-20.61,3.51,1.21,-0.61,-4.69,
3.518,0.25,-20.61,3.51,1.34,-0.82,-4.59,
3.519,0.15,-20.42,3.60,1.34,-0.82,-4.59,
3.52,0.48,-20.36,3.58,1.34,-0.82,-4.59,
3.52,0.48,-20.36,3.58,1.46,-1.03,-4.49,
3.521,0.90,-20.37,3.56,1.46,-1.03,-4.49,
3.521,0.90,-20.37,3.56,1.58,-1.22,-4.43,
3.522,1.24,-20.37,3.47,1.58,-1.22,-4.43,
3.522,1.24,-20.37,3.47,1.67,-1.40,-4.40,
3.523,1.24,-20.37,3.47,1.75,-1.56,-4.40,
3.523,1.39,-20.32,3.43,1.75,-1.56,-4.40,
3.524,1.36,-20.17,3.32,1.75,-1.56,-4.40,
3.524,1.36,-20.17,3.32,1.80,-1.70,-4.41,
3.525,1.24,-19.98,3.27,1.80,-1.70,-4.41,
3.525,1.24,-19.98,3.27,1.83,-1.80,-4.43,
3.526,1.24,-19.98,3.27,1.83,-1.85,-4.44,
3.526,1.13,-19.74,3.25,1.83,-1.85,-4.44,
3.527,1.13,-19.74,3.25,1.81,-1.86,-4.45,
3.527,1.01,-19.59,3.21,1.81,-1.86,-4.45,
3.528,1.01,-19.59,3.21,1.78,-1.81,-4.47,
3.529,0.80,-19.45,3.15,1.78,-1.81,-4.47,
3.529,0.80,-19.45,3.15,1.73,-1.72,-4.48,
3.53,0.54,-19.49,3.22,1.73,-1.72,-4.48,
3.53,0.16,-19.59,3.31,1.73,-1.72,-4.48,
3.531,0.16,-19.59,3.31,1.68,-1.60,-4.48,
3.531,0.16,-19.59,3.31,1.62,-1.46,-4.47,
3.532,-0.24,-19.57,3.31,1.62,-1.46,-4.47,
3.533,-0.24,-19.57,3.31,1.55,-1.31,-4.44,
3.533,-0.69,-19.52,3.27,1.55,-1.31,-4.44,
3.537,-1.20,-19.40,3.26,1.55,-1.31,-4.44,
3.538,-1.20,-19.40,3.26,1.49,-1.17,-4.41,
3.542,-1.66,-19.26,3.17,1.49,-1.17,-4.41,
3.543,-1.66,-19.26,3.17,1.42,-1.04,-4.36,
3.553,-1.66,-19.26,3.17,1.34,-0.91,-4.30,
3.554,-2.12,-19.14,3.01,1.34,-0.91,-4.30,
3.554,-2.12,-19.14,3.01,1.27,-0.77,-4.24,
3.555,-2.49,-19.03,2.77,1.27,-0.77,-4.24,
3.59,-2.88,-18.96,2.48,1.27,-0.77,-4.24,
3.591,-2.88,-18.96,2.48,1.18,-0.62,-4.18,
3.591,-3.33,-18.88,2.16,1.18,-0.62,-4.18,
3.592,-3.33,-18.88,2.16,1.09,-0.47,-4.12,
3.592,-3.33,-18.88,2.16,0.98,-0.31,-4.05,
3.593,-3.85,-18.81,1.82,0.98,-0.31,-4.05,
3.593,-3.85,-18.81,1.82,0.87,-0.13,-3.99,
3.594,-4.48,-18.78,1.45,0.87,-0.13,-3.99,
3.594,-4.48,-18.78,1.45,0.76,0.05,-3.90,
3.595,-5.20,-18.78,1.11,0.76,0.05,-3.90,
3.596,-5.20,-18.78,1.11,0.63,0.23,-3.80,
3.596,-6.05,-18.79,0.78,0.63,0.23,-3.80,
3.596,-6.92,-18.76,0.45,0.63,0.23,-3.80,
3.597,-6.92,-18.76,0.45,0.51,0.40,-3.66,
3.598,-6.92,-18.76,0.45,0.39,0.57,-3.50,
3.598,-7.83,-18.70,0.11,0.39,0.57,-3.50,
3.599,-7.83,-18.70,0.11,0.26,0.73,-3.30,
3.599,-8.79,-18.55,-0.27,0.26,0.73,-3.30,
3.602,-8.79,-18.55,-0.27,0.14,0.86,-3.08,
3.603,-9.79,-18.40,-0.56,0.14,0.86,-3.08,
3.606,-9.79,-18.40,-0.56,0.01,0.96,-2.84,
3.607,-10.77,-18.21,-0.84,0.01,0.96,-2.84,
3.611,-10.77,-18.21,-0.84,-0.12,1.03,-2.56,
3.611,-11.75,-17.88,-1.00,-0.12,1.03,-2.56,
3.62,-11.75,-17.88,-1.00,-0.24,1.06,-2.26,
3.621,-12.60,-17.56,-1.03,-0.24,1.06,-2.26,
3.622,-12.60,-17.56,-1.03,-0.36,1.04,-1.93,
3.622,-13.19,-17.33,-1.01,-0.36,1.04,-1.93,
3.625,-13.19,-17.33,-1.01,-0.45,0.98,-1.57,
3.626,-13.34,-17.11,-0.86,-0.45,0.98,-1.57,
3.655,-13.23,-17.08,-0.61,-0.45,0.98,-1.57,
3.656,-13.23,-17.08,-0.61,-0.53,0.90,-1.21,
3.657,-12.79,-17.07,-0.27,-0.53,0.90,-1.21,
3.657,-12.79,-17.07,-0.27,-0.58,0.79,-0.85,
3.658,-12.79,-17.07,-0.27,-0.59,0.67,-0.50,
3.658,-12.15,-17.12,0.00,-0.59,0.67,-0.50,
3.659,-12.15,-17.12,0.00,-0.59,0.56,-0.18,
3.659,-11.54,-17.15,0.24,-0.59,0.56,-0.18,
3.66,-11.54,-17.15,0.24,-0.56,0.46,0.09,
3.66,-11.01,-17.06,0.43,-0.56,0.46,0.09,
3.66,-11.01,-17.06,0.43,-0.53,0.38,0.35,
3.661,-10.60,-16.89,0.53,-0.53,0.38,0.35,
3.661,-10.38,-16.68,0.50,-0.53,0.38,0.35,
3.662,-10.38,-16.68,0.50,-0.49,0.31,0.58,
3.664,-10.19,-16.47,0.47,-0.49,0.31,0.58,
3.665,-10.19,-16.47,0.47,-0.46,0.25,0.80,
3.669,-10.07,-16.28,0.41,-0.46,0.25,0.80,
3.669,-10.07,-16.28,0.41,-0.43,0.20,1.01,
3.674,-10.07,-16.28,0.41,-0.42,0.15,1.21,
3.674,-9.93,-16.15,0.33,-0.42,0.15,1.21,
3.687,-9.93,-16.15,0.33,-0.42,0.11,1.41,
3.688,-9.79,-16.07,0.24,-0.42,0.11,1.41,
3.689,-9.79,-16.07,0.24,-0.42,0.08,1.61,
3.689,-9.65,-16.05,0.14,-0.42,0.08,1.61,
3.69,-9.65,-16.05,0.14,-0.44,0.03,1.81,
3.69,-9.49,-16.02,0.07,-0.44,0.03,1.81,
3.693,-9.32,-15.99,0.08,-0.44,0.03,1.81,
3.695,-9.32,-15.99,0.08,-0.47,-0.01,2.01,
3.72,-9.32,-15.99,0.08,-0.51,-0.06,2.21,
3.721,-9.11,-16.02,0.09,-0.51,-0.06,2.21,
3.721,-9.11,-16.02,0.09,-0.55,-0.12,2.41,
3.722,-8.87,-16.09,0.13,-0.55,-0.12,2.41,
3.722,-8.87,-16.09,0.13,-0.60,-0.19,2.62,
3.723,-8.54,-16.25,0.23,-0.60,-0.19,2.62,
3.723,-8.54,-16.25,0.23,-0.65,-0.28,2.82,
3.723,-8.07,-16.45,0.37,-0.65,-0.28,2.82,
3.724,-8.07,-16.45,0.37,-0.70,-0.39,3.03,
3.724,-7.49,-16.66,0.65,-0.70,-0.39,3.03,
3.725,-7.49,-16.66,0.65,-0.73,-0.52,3.22,
3.726,-7.06,-16.93,1.06,-0.73,-0.52,3.22,
3.728,-7.06,-16.93,1.06,-0.75,-0.65,3.42,
3.728,-6.57,-17.22,1.50,-0.75,-0.65,3.42,
3.733,-6.57,-17.22,1.50,-0.74,-0.78,3.61,
3.734,-6.13,-17.56,1.99,-0.74,-0.78,3.61,
3.737,-5.63,-17.92,2.57,-0.74,-0.78,3.61,
3.738,-5.63,-17.92,2.57,-0.72,-0.91,3.81,
3.742,-5.17,-18.23,3.11,-0.72,-0.91,3.81,
3.742,-5.17,-18.23,3.11,-0.66,-1.04,4.01,
3.747,-4.74,-18.55,3.69,-0.66,-1.04,4.01,
3.748,-4.74,-18.55,3.69,-0.57,-1.17,4.21,
3.752,-4.44,-18.86,4.20,-0.57,-1.17,4.21,
3.753,-4.44,-18.86,4.20,-0.46,-1.29,4.41,
3.757,-4.41,-19.16,4.72,-0.46,-1.29,4.41,
3.757,-4.41,-19.16,4.72,-0.31,-1.39,4.62,
3.773,-4.41,-19.16,4.72,-0.12,-1.47,4.84,
3.775,-4.54,-19.52,5.15,-0.12,-1.47,4.84,
3.776,-4.54,-19.52,5.15,0.09,-1.52,5.10,
3.777,-4.64,-19.87,5.44,0.09,-1.52,5.10,
3.778,-4.64,-19.87,5.44,0.32,-1.56,5.37,
3.778,-4.71,-20.11,5.52,0.32,-1.56,5.37,
3.779,-4.52,-20.30,5.45,0.32,-1.56,5.37,
3.78,-4.52,-20.30,5.45,0.55,-1.59,5.67,
3.827,-4.52,-20.30,5.45,0.77,-1.61,5.97,
3.828,-4.12,-20.46,5.22,0.77,-1.61,5.97,
3.829,-4.12,-20.46,5.22,0.97,-1.60,6.27,
3.829,-3.60,-20.67,4.88,0.97,-1.60,6.27,
3.83,-3.60,-20.67,4.88,1.15,-1.56,6.56,
3.831,-2.87,-20.95,4.53,1.15,-1.56,6.56,
3.831,-2.87,-20.95,4.53,1.28,-1.48,6.84,
3.832,-2.02,-21.25,4.13,1.28,-1.48,6.84,
3.876,-1.15,-21.69,3.68,1.28,-1.48,6.84,
3.876,-1.15,-21.69,3.68,1.38,-1.36,7.09,
3.877,-1.15,-21.69,3.68,1.43,-1.18,7.34,
3.878,-0.20,-22.18,3.28,1.43,-1.18,7.34,
3.879,-0.20,-22.18,3.28,1.44,-0.95,7.58,
3.879,0.93,-22.74,2.93,1.44,-0.95,7.58,
3.88,2.14,-23.20,2.64,1.44,-0.95,7.58,
3.88,2.14,-23.20,2.64,1.41,-0.66,7.81,
3.881,2.14,-23.20,2.64,1.35,-0.34,8.02,
3.881,3.45,-23.74,2.30,1.35,-0.34,8.02,
3.882,4.74,-24.24,1.99,1.35,-0.34,8.02,
3.882,4.74,-24.24,1.99,1.25,0.01,8.21,
3.883,4.74,-24.24,1.99,1.11,0.38,8.38,
3.883,6.03,-24.76,1.51,1.11,0.38,8.38,
3.884,7.19,-25.32,0.99,1.11,0.38,8.38,
3.884,7.19,-25.32,0.99,0.94,0.77,8.52,
3.885,8.21,-25.91,0.53,0.94,0.77,8.52,
3.885,8.21,-25.91,0.53,0.73,1.14,8.65,
3.885,9.15,-26.46,0.11,0.73,1.14,8.65,
3.886,9.15,-26.46,0.11,0.48,1.52,8.78,
3.886,10.11,-26.93,-0.25,0.48,1.52,8.78,
3.887,10.11,-26.93,-0.25,0.20,1.87,8.92,
3.887,10.93,-27.42,-0.57,0.20,1.87,8.92,
3.888,10.93,-27.42,-0.57,-0.11,2.20,9.06,
3.889,10.93,-27.42,-0.57,-0.43,2.49,9.19,
3.889,11.73,-28.08,-0.89,-0.43,2.49,9.19,
3.89,11.73,-28.08,-0.89,-0.78,2.75,9.34,
3.89,12.43,-28.88,-1.07,-0.78,2.75,9.34,
3.891,12.43,-28.88,-1.07,-1.13,2.97,9.49,
3.891,13.14,-29.71,-1.10,-1.13,2.97,9.49,
3.892,13.14,-29.71,-1.10,-1.48,3.14,9.67,
3.892,13.83,-30.44,-0.95,-1.48,3.14,9.67,
3.893,13.83,-30.44,-0.95,-1.82,3.27,9.85,
3.893,14.61,-31.19,-0.71,-1.82,3.27,9.85,
3.894,15.53,-31.95,-0.42,-1.82,3.27,9.85,
3.894,15.53,-31.95,-0.42,-2.14,3.34,10.04,
3.895,15.53,-31.95,-0.42,-2.43,3.35,10.22,
3.895,16.56,-32.76,-0.06,-2.43,3.35,10.22,
3.896,17.70,-33.63,0.30,-2.43,3.35,10.22,
3.896,17.70,-33.63,0.30,-2.69,3.32,10.41,
3.905,17.70,-33.63,0.30,-2.91,3.25,10.59,
3.906,18.89,-34.54,0.68,-2.91,3.25,10.59,
3.907,20.23,-34.47,0.95,-2.91,3.25,10.59,
3.908,20.23,-34.47,0.95,-3.11,3.12,10.77,
3.908,20.23,-34.47,0.95,-3.28,2.98,10.93,
3.909,21.56,-34.02,1.07,-3.28,2.98,10.93,
3.943,21.56,-34.02,1.07,-3.43,2.82,11.09,
3.945,22.97,-33.58,1.28,-3.43,2.82,11.09,
3.945,24.50,-33.15,1.54,-3.43,2.82,11.09,
3.946,24.50,-33.15,1.54,-3.57,2.67,11.24,
3.947,26.00,-32.73,2.08,-3.57,2.67,11.24,
3.947,26.00,-32.73,2.08,-3.70,2.53,11.39,
3.948,26.00,-32.73,2.08,-3.80,2.39,11.51,
3.948,27.36,-32.33,2.85,-3.80,2.39,11.51,
3.949,28.52,-31.94,3.91,-3.80,2.39,11.51,
3.95,28.52,-31.94,3.91,-3.85,2.26,11.62,
3.95,29.47,-31.58,5.38,-3.85,2.26,11.62,
3.951,29.47,-31.58,5.38,-3.85,2.14,11.73,
3.951,30.39,-31.23,7.09,-3.85,2.14,11.73,
3.952,30.39,-31.23,7.09,-3.76,2.00,11.87,
3.953,30.39,-31.23,7.09,-3.58,1.80,12.04,
3.953,31.49,-30.91,8.99,-3.58,1.80,12.04,
3.954,33.14,-30.60,10.73,-3.58,1.80,12.04,
3.954,33.14,-30.60,10.73,-3.29,1.55,12.19,
3.963,33.14,-30.60,10.73,-2.90,1.31,12.33,
3.964,33.64,-30.33,12.17,-2.90,1.31,12.33,
3.965,33.64,-30.33,12.17,-2.43,1.12,12.44,
3.966,35.63,-30.07,13.46,-2.43,1.12,12.44,
3.966,35.63,-30.07,13.46,-1.90,0.94,12.47,
3.967,36.15,-29.85,15.07,-1.90,0.94,12.47,
3.971,36.15,-29.85,15.07,-1.32,0.76,12.30,
3.972,36.66,-28.72,16.57,-1.32,0.76,12.30,
3.976,36.66,-28.72,16.57,-0.69,0.58,12.01,
3.977,37.18,-25.62,17.84,-0.69,0.58,12.01,
3.998,37.18,-25.62,17.84,0.03,0.49,11.64,
3.999,37.68,-22.40,18.46,0.03,0.49,11.64,
4.0,38.17,-17.55,18.18,0.03,0.49,11.64,
4.0,38.17,-17.55,18.18,0.82,0.48,11.17,
4.001,38.64,-11.96,16.62,0.82,0.48,11.17,
4.002,38.64,-11.96,16.62,1.60,0.37,10.61,
4.002,39.08,-7.90,13.36,1.60,0.37,10.61,
4.003,39.08,-7.90,13.36,2.26,0.09,9.98,
4.003,39.48,-4.91,10.83,2.26,0.09,9.98,
4.003,39.48,-4.91,10.83,2.73,-0.15,9.20,
4.005,39.84,-2.73,9.53,2.73,-0.15,9.20,
4.006,39.84,-2.73,9.53,3.02,-0.29,8.22,
4.01,40.14,-0.96,8.79,3.02,-0.29,8.22,
4.01,40.14,-0.96,8.79,3.15,-0.35,7.11,
4.019,40.38,0.30,8.51,3.15,-0.35,7.11,
4.02,40.38,0.30,8.51,3.19,-0.38,6.00,
4.021,37.13,1.05,8.90,3.19,-0.38,6.00,
4.021,37.13,1.05,8.90,3.22,-0.30,5.06,
4.025,33.85,1.42,8.16,3.22,-0.30,5.06,
4.025,33.85,1.42,8.16,3.31,-0.04,4.40,
4.051,33.85,1.42,8.16,3.39,0.34,3.93,
4.052,32.14,1.60,6.39,3.39,0.34,3.93,
4.053,32.14,1.60,6.39,3.38,0.76,3.54,
4.053,30.79,1.71,4.47,3.38,0.76,3.54,
4.054,28.98,1.91,2.74,3.38,0.76,3.54,
4.054,28.98,1.91,2.74,3.26,1.15,3.19,
4.09,26.95,2.09,1.05,3.26,1.15,3.19,
4.09,26.95,2.09,1.05,3.03,1.50,2.90,
4.091,25.48,2.30,-0.60,3.03,1.50,2.90,
4.091,25.48,2.30,-0.60,2.73,1.84,2.66,
4.092,25.48,2.30,-0.60,2.36,2.15,2.47,
4.092,24.31,2.61,-2.06,2.36,2.15,2.47,
4.093,24.31,2.61,-2.06,1.93,2.47,2.30,
4.093,23.07,3.10,-2.73,1.93,2.47,2.30,
4.094,21.96,3.62,-2.98,1.93,2.47,2.30,
4.094,21.96,3.62,-2.98,1.48,2.76,2.15,
4.095,21.16,4.05,-2.89,1.48,2.76,2.15,
4.095,21.16,4.05,-2.89,1.05,3.03,2.00,
4.096,20.55,4.35,-2.46,1.05,3.03,2.00,
4.096,20.55,4.35,-2.46,0.66,3.25,1.85,
4.097,20.55,4.35,-2.46,0.32,3.40,1.70,
4.097,19.95,4.43,-1.86,0.32,3.40,1.70,
4.098,19.36,4.45,-1.20,0.32,3.40,1.70,
4.098,19.36,4.45,-1.20,0.04,3.48,1.54,
4.099,18.73,4.46,-0.63,0.04,3.48,1.54,
4.099,18.73,4.46,-0.63,-0.16,3.50,1.37,
4.1,18.11,4.51,-0.15,-0.16,3.50,1.37,
4.1,18.11,4.51,-0.15,-0.31,3.47,1.22,
4.1,17.44,4.59,0.14,-0.31,3.47,1.22,
4.101,17.44,4.59,0.14,-0.42,3.40,1.08,
4.103,16.82,4.67,0.26,-0.42,3.40,1.08,
4.103,16.82,4.67,0.26,-0.49,3.30,0.95,
4.108,16.15,4.73,0.33,-0.49,3.30,0.95,
4.109,16.15,4.73,0.33,-0.54,3.18,0.84,
4.121,16.15,4.73,0.33,-0.59,3.05,0.74,
4.122,15.54,4.80,0.37,-0.59,3.05,0.74,
4.123,15.54,4.80,0.37,-0.64,2.93,0.65,
4.123,14.89,4.91,0.44,-0.64,2.93,0.65,
4.123,14.37,5.04,0.56,-0.64,2.93,0.65,
4.124,14.37,5.04,0.56,-0.69,2.81,0.58,
4.127,13.92,5.21,0.57,-0.69,2.81,0.58,
4.128,13.92,5.21,0.57,-0.75,2.71,0.52,
4.151,13.56,5.33,0.64,-0.75,2.71,0.52,
4.152,13.56,5.33,0.64,-0.80,2.62,0.46,
4.153,13.56,5.33,0.64,-0.86,2.53,0.41,
4.153,13.26,5.34,0.61,-0.86,2.53,0.41,
4.153,12.97,5.34,0.73,-0.86,2.53,0.41,
4.154,12.97,5.34,0.73,-0.92,2.42,0.37,
4.154,12.97,5.34,0.73,-0.98,2.32,0.33,
4.154,12.70,5.37,0.94,-0.98,2.32,0.33,
4.155,12.43,5.62,1.21,-0.98,2.32,0.33,
4.155,12.43,5.62,1.21,-1.02,2.21,0.31,
4.156,12.43,5.62,1.21,-1.06,2.11,0.28,
4.157,12.19,5.94,1.41,-1.06,2.11,0.28,
4.162,11.98,6.13,1.44,-1.06,2.11,0.28,
4.162,11.98,6.13,1.44,-1.09,2.01,0.25,
4.167,11.98,6.13,1.44,-1.11,1.91,0.22,
4.167,11.78,6.27,1.36,-1.11,1.91,0.22,
4.171,11.68,6.43,1.36,-1.11,1.91,0.22,
4.172,11.68,6.43,1.36,-1.14,1.79,0.21,
4.176,11.70,6.64,1.36,-1.14,1.79,0.21,
4.176,11.70,6.64,1.36,-1.16,1.68,0.18,
4.181,11.62,6.81,1.40,-1.16,1.68,0.18,
4.182,11.62,6.81,1.40,-1.18,1.56,0.15,
4.186,11.39,6.93,1.49,-1.18,1.56,0.15,
4.186,11.39,6.93,1.49,-1.20,1.44,0.13,
4.191,11.23,7.01,1.56,-1.20,1.44,0.13,
4.191,11.23,7.01,1.56,-1.22,1.31,0.11,
4.195,11.23,7.01,1.56,-1.25,1.18,0.10,
4.196,11.12,6.97,1.71,-1.25,1.18,0.10,
4.205,11.12,6.97,1.71,-1.27,1.05,0.11,
4.206,11.15,6.95,1.76,-1.27,1.05,0.11,
4.207,11.23,6.97,1.84,-1.27,1.05,0.11,
4.207,11.23,6.97,1.84,-1.29,0.92,0.11,
4.212,11.23,6.97,1.84,-1.31,0.77,0.11,
4.213,11.36,7.01,2.01,-1.31,0.77,0.11,
4.244,11.36,7.01,2.01,-1.33,0.60,0.12,
4.245,11.47,6.98,2.22,-1.33,0.60,0.12,
4.246,11.47,6.98,2.22,-1.34,0.42,0.13,
4.246,11.71,6.83,2.58,-1.34,0.42,0.13,
4.247,11.71,6.83,2.58,-1.35,0.22,0.13,
4.247,11.93,6.65,3.07,-1.35,0.22,0.13,
4.248,11.93,6.65,3.07,-1.33,-0.00,0.13,
4.249,12.21,6.46,3.65,-1.33,-0.00,0.13,
4.25,12.21,6.46,3.65,-1.30,-0.26,0.14,
4.25,12.61,6.25,4.24,-1.30,-0.26,0.14,
4.251,12.61,6.25,4.24,-1.24,-0.56,0.14,
4.251,13.15,5.98,4.88,-1.24,-0.56,0.14,
4.252,13.69,5.71,5.56,-1.24,-0.56,0.14,
4.252,13.69,5.71,5.56,-1.14,-0.88,0.14,
4.253,13.69,5.71,5.56,-1.02,-1.23,0.16,
4.253,14.25,5.44,6.14,-1.02,-1.23,0.16,
4.256,14.25,5.44,6.14,-0.87,-1.59,0.17,
4.257,14.78,5.31,6.61,-0.87,-1.59,0.17,
4.259,15.41,5.28,7.00,-0.87,-1.59,0.17,
4.26,15.41,5.28,7.00,-0.71,-1.96,0.19,
4.264,15.41,5.28,7.00,-0.53,-2.35,0.21,
4.265,16.07,5.36,7.40,-0.53,-2.35,0.21,
4.269,16.75,5.52,7.82,-0.53,-2.35,0.21,
4.27,16.75,5.52,7.82,-0.36,-2.76,0.21,
4.274,17.46,5.70,8.34,-0.36,-2.76,0.21,
4.274,17.46,5.70,8.34,-0.18,-3.18,0.19,
4.279,18.07,5.94,8.73,-0.18,-3.18,0.19,
4.279,18.07,5.94,8.73,0.00,-3.59,0.14,
4.284,18.72,6.18,8.89,0.00,-3.59,0.14,
4.284,18.72,6.18,8.89,0.19,-3.97,0.06,
4.315,19.32,6.44,8.91,0.19,-3.97,0.06,
4.316,19.32,6.44,8.91,0.38,-4.31,-0.05,
4.316,19.88,6.60,9.09,0.38,-4.31,-0.05,
4.317,19.88,6.60,9.09,0.56,-4.59,-0.18,
4.317,20.63,6.58,9.19,0.56,-4.59,-0.18,
4.318,20.63,6.58,9.19,0.73,-4.81,-0.34,
4.318,20.63,6.58,9.19,0.90,-4.98,-0.55,
4.319,21.58,6.48,8.94,0.90,-4.98,-0.55,
4.319,21.58,6.48,8.94,1.04,-5.10,-0.82,
4.32,22.59,6.30,8.69,1.04,-5.10,-0.82,
4.32,22.59,6.30,8.69,1.15,-5.19,-1.15,
4.321,23.47,5.96,8.45,1.15,-5.19,-1.15,
4.321,23.47,5.96,8.45,1.23,-5.22,-1.54,
4.322,24.13,5.46,8.28,1.23,-5.22,-1.54,
4.322,24.13,5.46,8.28,1.29,-5.21,-1.98,
4.323,24.62,4.89,8.09,1.29,-5.21,-1.98,
4.333,24.93,4.18,7.84,1.29,-5.21,-1.98,
4.334,24.93,4.18,7.84,1.34,-5.14,-2.46,
4.335,24.93,4.18,7.84,1.36,-5.02,-2.97,
4.335,25.00,3.45,7.45,1.36,-5.02,-2.97,
4.337,25.00,3.45,7.45,1.37,-4.87,-3.49,
4.337,24.80,2.62,6.94,1.37,-4.87,-3.49,
4.342,24.80,2.62,6.94,1.35,-4.71,-4.01,
4.342,24.39,1.61,6.47,1.35,-4.71,-4.01,
4.359,24.39,1.61,6.47,1.31,-4.55,-4.50,
4.36,23.79,0.47,6.03,1.31,-4.55,-4.50,
4.361,23.79,0.47,6.03,1.24,-4.38,-4.97,
4.361,23.24,-0.80,5.64,1.24,-4.38,-4.97,
4.362,22.81,-2.22,5.22,1.24,-4.38,-4.97,
4.362,22.81,-2.22,5.22,1.16,-4.22,-5.41,
4.363,22.43,-3.79,4.73,1.16,-4.22,-5.41,
4.363,22.43,-3.79,4.73,1.06,-4.04,-5.81,
4.367,22.16,-5.47,4.18,1.06,-4.04,-5.81,
4.368,22.16,-5.47,4.18,0.95,-3.86,-6.19,
4.371,22.16,-5.47,4.18,0.82,-3.71,-6.54,
4.372,21.90,-7.12,3.67,0.82,-3.71,-6.54,
4.376,21.90,-7.12,3.67,0.66,-3.55,-6.85,
4.376,21.55,-8.74,3.35,0.66,-3.55,-6.85,
4.381,21.23,-10.34,2.97,0.66,-3.55,-6.85,
4.382,21.23,-10.34,2.97,0.49,-3.39,-7.13,
4.386,21.08,-11.98,2.54,0.49,-3.39,-7.13,
4.386,21.08,-11.98,2.54,0.31,-3.24,-7.38,
4.39,21.08,-11.98,2.54,0.11,-3.07,-7.58,
4.391,21.05,-13.57,2.21,0.11,-3.07,-7.58,
4.395,20.97,-15.12,2.11,0.11,-3.07,-7.58,
4.396,20.97,-15.12,2.11,-0.10,-2.91,-7.77,
4.401,20.97,-15.12,2.11,-0.31,-2.73,-7.92,
4.402,20.91,-16.56,1.93,-0.31,-2.73,-7.92,
4.406,20.89,-17.97,1.82,-0.31,-2.73,-7.92,
4.407,20.89,-17.97,1.82,-0.53,-2.54,-8.05,
4.411,20.74,-19.30,1.76,-0.53,-2.54,-8.05,
4.412,20.74,-19.30,1.76,-0.75,-2.33,-8.15,
4.425,20.46,-20.42,1.72,-0.75,-2.33,-8.15,
4.426,20.46,-20.42,1.72,-0.98,-2.09,-8.23,
4.427,20.11,-21.39,1.69,-0.98,-2.09,-8.23,
4.428,20.11,-21.39,1.69,-1.20,-1.84,-8.29,
4.429,19.72,-22.16,1.67,-1.20,-1.84,-8.29,
4.43,19.72,-22.16,1.67,-1.44,-1.57,-8.33,
4.43,19.72,-22.16,1.67,-1.67,-1.29,-8.36,
4.432,19.48,-22.91,1.76,-1.67,-1.29,-8.36,
4.472,19.48,-22.91,1.76,-1.89,-1.01,-8.40,
4.473,19.39,-23.61,1.90,-1.89,-1.01,-8.40,
4.473,19.39,-23.61,1.90,-2.09,-0.71,-8.43,
4.474,19.31,-24.25,2.16,-2.09,-0.71,-8.43,
4.475,19.22,-24.83,2.49,-2.09,-0.71,-8.43,
4.475,19.22,-24.83,2.49,-2.26,-0.40,-8.49,
4.476,19.16,-25.42,2.79,-2.26,-0.40,-8.49,
4.477,19.16,-25.42,2.79,-2.40,-0.08,-8.55,
4.478,19.16,-25.42,2.79,-2.50,0.26,-8.63,
4.478,19.24,-26.14,2.91,-2.50,0.26,-8.63,
4.479,19.24,-26.14,2.91,-2.57,0.58,-8.73,
4.479,19.48,-27.04,2.88,-2.57,0.58,-8.73,
4.48,19.48,-27.04,2.88,-2.60,0.87,-8.84,
4.481,19.53,-27.87,2.84,-2.60,0.87,-8.84,
4.482,19.32,-28.46,2.90,-2.60,0.87,-8.84,
4.483,19.32,-28.46,2.90,-2.61,1.15,-8.95,
4.483,19.32,-28.46,2.90,-2.59,1.40,-9.06,
4.484,18.88,-28.91,3.09,-2.59,1.40,-9.06,
4.485,18.88,-28.91,3.09,-2.53,1.65,-9.18,
4.486,18.16,-29.26,3.17,-2.53,1.65,-9.18,
4.486,18.16,-29.26,3.17,-2.44,1.92,-9.27,
4.487,17.24,-29.62,3.22,-2.44,1.92,-9.27,
4.489,16.32,-29.99,3.10,-2.44,1.92,-9.27,
4.49,16.32,-29.99,3.10,-2.31,2.18,-9.34,
4.493,16.32,-29.99,3.10,-2.17,2.41,-9.38,
4.494,15.30,-30.36,2.95,-2.17,2.41,-9.38,
4.499,14.15,-30.44,2.95,-2.17,2.41,-9.38,
4.501,14.15,-30.44,2.95,-2.03,2.61,-9.38,
4.503,12.98,-30.47,2.86,-2.03,2.61,-9.38,
4.504,12.98,-30.47,2.86,-1.86,2.78,-9.35,
4.508,11.77,-30.41,2.83,-1.86,2.78,-9.35,
4.509,11.77,-30.41,2.83,-1.68,2.94,-9.29,
4.513,10.42,-30.38,2.86,-1.68,2.94,-9.29,
4.514,10.42,-30.38,2.86,-1.47,3.07,-9.20,
4.518,9.01,-30.34,2.94,-1.47,3.07,-9.20,
4.52,9.01,-30.34,2.94,-1.23,3.20,-9.06,
4.523,7.52,-30.31,2.86,-1.23,3.20,-9.06,
4.523,7.52,-30.31,2.86,-0.95,3.27,-8.87,
4.527,5.97,-30.03,2.74,-0.95,3.27,-8.87,
4.528,5.97,-30.03,2.74,-0.64,3.30,-8.64,
4.571,4.49,-29.60,2.61,-0.64,3.30,-8.64,
4.572,4.49,-29.60,2.61,-0.32,3.27,-8.36,
4.572,3.16,-29.12,2.27,-0.32,3.27,-8.36,
4.573,3.16,-29.12,2.27,0.02,3.19,-8.03,
4.574,3.16,-29.12,2.27,0.36,3.05,-7.67,
4.574,1.97,-28.47,1.90,0.36,3.05,-7.67,
4.575,0.94,-27.75,1.43,0.36,3.05,-7.67,
4.576,0.94,-27.75,1.43,0.69,2.86,-7.30,
4.576,0.13,-26.98,1.07,0.69,2.86,-7.30,
4.577,0.13,-26.98,1.07,0.99,2.65,-6.91,
4.578,0.13,-26.98,1.07,1.28,2.40,-6.51,
4.578,-0.47,-26.17,0.67,1.28,2.40,-6.51,
4.579,-0.82,-25.26,0.35,1.28,2.40,-6.51,
4.579,-0.82,-25.26,0.35,1.55,2.13,-6.13,
4.58,-0.82,-25.26,0.35,1.79,1.86,-5.77,
4.58,-0.98,-24.35,0.11,1.79,1.86,-5.77,
4.581,-0.95,-23.43,-0.09,1.79,1.86,-5.77,
4.582,-0.95,-23.43,-0.09,2.01,1.57,-5.45,
4.582,-0.95,-23.43,-0.09,2.20,1.29,-5.17,
4.582,-0.76,-22.58,-0.19,2.20,1.29,-5.17,
4.596,-0.76,-22.58,-0.19,2.37,1.01,-4.95,
4.597,-0.53,-21.81,-0.21,2.37,1.01,-4.95,
4.597,-0.25,-21.17,-0.14,2.37,1.01,-4.95,
4.598,-0.25,-21.17,-0.14,2.53,0.72,-4.77,
4.598,0.03,-20.73,-0.02,2.53,0.72,-4.77,
4.599,0.03,-20.73,-0.02,2.67,0.46,-4.64,
4.599,0.22,-20.35,0.11,2.67,0.46,-4.64,
4.599,0.22,-20.35,0.11,2.81,0.19,-4.55,
4.63,0.22,-20.35,0.11,2.94,-0.07,-4.49,
4.632,0.22,-20.35,0.11,3.07,-0.32,-4.46,
4.632,0.27,-20.10,0.28,3.07,-0.32,-4.46,
4.632,0.25,-19.81,0.47,3.07,-0.32,-4.46,
4.633,0.25,-19.55,0.64,3.07,-0.32,-4.46,
4.633,0.25,-19.55,0.64,3.19,-0.55,-4.43,
4.633,0.25,-19.45,0.66,3.19,-0.55,-4.43,
4.634,0.25,-19.45,0.66,3.30,-0.78,-4.42,
4.634,0.27,-19.48,0.61,3.30,-0.78,-4.42,
4.635,0.27,-19.48,0.61,3.41,-1.00,-4.42,
4.635,0.27,-19.48,0.61,3.50,-1.20,-4.43,
4.635,0.14,-19.53,0.49,3.50,-1.20,-4.43,
4.636,0.14,-19.53,0.49,3.57,-1.36,-4.45,
4.636,-0.07,-19.65,0.34,3.57,-1.36,-4.45,
4.636,-0.41,-19.70,0.22,3.57,-1.36,-4.45,
4.637,-0.41,-19.70,0.22,3.61,-1.50,-4.46,
4.639,-0.80,-19.65,0.07,3.61,-1.50,-4.46,
4.64,-0.80,-19.65,0.07,3.62,-1.60,-4.46,
4.644,-1.15,-19.55,0.01,3.62,-1.60,-4.46,
4.645,-1.15,-19.55,0.01,3.61,-1.69,-4.45,
4.662,-1.15,-19.55,0.01,3.58,-1.75,-4.44,
4.663,-1.44,-19.49,-0.05,3.58,-1.75,-4.44,
4.663,-1.44,-19.49,-0.05,3.53,-1.79,-4.42,
4.664,-1.79,-19.47,-0.05,3.53,-1.79,-4.42,
4.664,-2.19,-19.36,-0.08,3.53,-1.79,-4.42,
4.665,-2.19,-19.36,-0.08,3.46,-1.80,-4.40,
4.666,-2.19,-19.36,-0.08,3.38,-1.79,-4.39,
4.666,-2.58,-19.30,-0.18,3.38,-1.79,-4.39,
4.673,-3.00,-19.27,-0.33,3.38,-1.79,-4.39,
4.675,-3.00,-19.27,-0.33,3.29,-1.76,-4.37,
4.675,-3.46,-19.28,-0.50,3.29,-1.76,-4.37,
4.676,-3.46,-19.28,-0.50,3.17,-1.72,-4.33,
4.678,-3.89,-19.27,-0.72,3.17,-1.72,-4.33,
4.679,-3.89,-19.27,-0.72,3.04,-1.66,-4.28,
4.706,-3.89,-19.27,-0.72,2.89,-1.59,-4.21,
4.708,-4.24,-19.30,-0.95,2.89,-1.59,-4.21,
4.708,-4.24,-19.30,-0.95,2.72,-1.50,-4.13,
4.708,-4.55,-19.20,-1.18,2.72,-1.50,-4.13,
4.709,-4.55,-19.20,-1.18,2.53,-1.41,-4.03,
4.709,-4.80,-19.20,-1.29,2.53,-1.41,-4.03,
4.71,-5.04,-19.13,-1.37,2.53,-1.41,-4.03,
4.71,-5.04,-19.13,-1.37,2.33,-1.31,-3.91,
4.71,-5.21,-18.95,-1.39,2.33,-1.31,-3.91,
4.711,-5.21,-18.95,-1.39,2.12,-1.20,-3.78,
4.711,-5.21,-18.95,-1.39,1.90,-1.10,-3.64,
4.712,-5.11,-18.59,-1.27,1.90,-1.10,-3.64,
4.712,-5.11,-18.59,-1.27,1.68,-0.98,-3.50,
4.713,-4.64,-18.10,-1.13,1.68,-0.98,-3.50,
4.717,-4.64,-18.10,-1.13,1.47,-0.87,-3.39,
4.718,-5.34,-17.82,-0.68,1.47,-0.87,-3.39,
4.722,-5.94,-17.40,-0.55,1.47,-0.87,-3.39,
4.723,-5.94,-17.40,-0.55,1.28,-0.74,-3.25,
4.728,-5.93,-16.89,-0.57,1.28,-0.74,-3.25,
4.728,-5.93,-16.89,-0.57,1.09,-0.62,-3.09,
4.738,-5.93,-16.89,-0.57,0.90,-0.48,-2.94,
4.739,-6.93,-16.57,0.10,0.90,-0.48,-2.94,
4.74,-6.93,-16.57,0.10,0.73,-0.32,-2.77,
4.74,-6.97,-16.01,0.21,0.73,-0.32,-2.77,
4.742,-6.97,-16.01,0.21,0.56,-0.16,-2.59,
4.742,-6.48,-15.54,0.43,0.56,-0.16,-2.59,
4.746,-6.12,-15.24,0.78,0.56,-0.16,-2.59,
4.747,-6.12,-15.24,0.78,0.41,-0.00,-2.44,
4.78,-6.16,-15.00,1.08,0.41,-0.00,-2.44,
4.781,-6.16,-15.00,1.08,0.28,0.16,-2.31,
4.782,-6.58,-14.78,1.31,0.28,0.16,-2.31,
4.782,-6.58,-14.78,1.31,0.16,0.33,-2.18,
4.783,-6.58,-14.78,1.31,0.06,0.51,-2.03,
4.783,-6.92,-14.67,1.46,0.06,0.51,-2.03,
4.784,-7.11,-14.56,1.57,0.06,0.51,-2.03,
4.784,-7.11,-14.56,1.57,-0.02,0.69,-1.88,
4.785,-7.19,-14.45,1.60,-0.02,0.69,-1.88,
4.785,-7.19,-14.45,1.60,-0.09,0.87,-1.73,
4.826,-7.29,-14.35,1.68,-0.09,0.87,-1.73,
4.826,-7.29,-14.35,1.68,-0.15,1.05,-1.58,
4.827,-7.29,-14.35,1.68,-0.20,1.22,-1.42,
4.827,-7.52,-14.31,1.70,-0.20,1.22,-1.42,
4.828,-7.52,-14.31,1.70,-0.23,1.38,-1.26,
4.828,-7.80,-14.41,1.64,-0.23,1.38,-1.26,
4.829,-7.80,-14.41,1.64,-0.24,1.54,-1.10,
4.83,-8.12,-14.53,1.40,-0.24,1.54,-1.10,
4.83,-8.12,-14.53,1.40,-0.24,1.70,-0.93,
4.831,-8.51,-14.74,1.03,-0.24,1.70,-0.93,
4.831,-8.95,-14.87,0.49,-0.24,1.70,-0.93,
4.832,-8.95,-14.87,0.49,-0.25,1.84,-0.75,
4.833,-8.95,-14.87,0.49,-0.27,1.95,-0.57,
4.833,-9.54,-14.95,-0.13,-0.27,1.95,-0.57,
4.834,-9.54,-14.95,-0.13,-0.31,2.05,-0.37,
4.834,-10.24,-14.93,-0.85,-0.31,2.05,-0.37,
4.835,-10.99,-14.84,-1.62,-0.31,2.05,-0.37,
4.835,-10.99,-14.84,-1.62,-0.37,2.10,-0.16,
4.836,-10.99,-14.84,-1.62,-0.46,2.12,0.06,
4.836,-11.79,-14.76,-2.40,-0.46,2.12,0.06,
4.837,-11.79,-14.76,-2.40,-0.57,2.10,0.31,
4.837,-12.58,-14.69,-3.19,-0.57,2.10,0.31,
4.838,-12.58,-14.69,-3.19,-0.72,2.05,0.57,
4.838,-12.62,-14.66,-4.07,-0.72,2.05,0.57,
4.839,-12.62,-14.66,-4.07,-0.90,1.95,0.84,
4.839,-12.75,-14.57,-4.94,-0.90,1.95,0.84,
4.84,-12.75,-14.57,-4.94,-1.11,1.79,1.09,
4.841,-13.64,-14.39,-5.33,-1.11,1.79,1.09,
4.85,-13.64,-14.39,-5.33,-1.34,1.62,1.38,
4.851,-14.54,-14.27,-5.46,-1.34,1.62,1.38,
4.852,-15.19,-14.21,-5.72,-1.34,1.62,1.38,
4.852,-15.19,-14.21,-5.72,-1.57,1.42,1.71,
4.889,-15.19,-14.21,-5.72,-1.82,1.19,2.06,
4.89,-15.35,-14.29,-6.01,-1.82,1.19,2.06,
4.89,-15.35,-14.29,-6.01,-2.08,0.94,2.45,
4.891,-15.14,-14.54,-6.26,-2.08,0.94,2.45,
4.891,-15.14,-14.54,-6.26,-2.35,0.67,2.83,
4.891,-14.51,-14.87,-6.36,-2.35,0.67,2.83,
4.892,-14.51,-14.87,-6.36,-2.63,0.38,3.21,
4.892,-13.34,-15.21,-6.26,-2.63,0.38,3.21,
4.893,-13.34,-15.21,-6.26,-2.92,0.10,3.56,
4.893,-12.15,-15.56,-5.81,-2.92,0.10,3.56,
4.893,-10.90,-15.87,-5.23,-2.92,0.10,3.56,
4.894,-10.90,-15.87,-5.23,-3.18,-0.16,3.87,
4.894,-10.90,-15.87,-5.23,-3.42,-0.41,4.14,
4.894,-9.68,-16.10,-4.55,-3.42,-0.41,4.14,
4.895,-9.68,-16.10,-4.55,-3.62,-0.66,4.38,
4.896,-8.51,-16.31,-3.68,-3.62,-0.66,4.38,
4.896,-7.39,-16.56,-2.82,-3.62,-0.66,4.38,
4.896,-7.39,-16.56,-2.82,-3.78,-0.90,4.58,
4.898,-6.34,-16.91,-2.02,-3.78,-0.90,4.58,
4.898,-6.34,-16.91,-2.02,-3.90,-1.12,4.76,
4.907,-6.34,-16.91,-2.02,-3.98,-1.31,4.93,
4.907,-5.41,-17.25,-1.33,-3.98,-1.31,4.93,
4.908,-5.41,-17.25,-1.33,-4.02,-1.48,5.08,
4.908,-4.62,-17.46,-0.64,-4.02,-1.48,5.08,
4.912,-4.62,-17.46,-0.64,-4.03,-1.63,5.22,
4.913,-4.01,-17.54,0.03,-4.03,-1.63,5.22,
4.938,-3.44,-17.53,0.73,-4.03,-1.63,5.22,
4.939,-3.44,-17.53,0.73,-4.02,-1.76,5.34,
4.94,-3.44,-17.53,0.73,-3.98,-1.87,5.46,
4.94,-2.94,-17.51,1.42,-3.98,-1.87,5.46,
4.941,-2.46,-17.51,2.10,-3.98,-1.87,5.46,
4.941,-2.46,-17.51,2.10,-3.90,-1.97,5.56,
4.942,-2.46,-17.51,2.10,-3.80,-2.07,5.67,
4.942,-1.97,-17.52,2.67,-3.80,-2.07,5.67,
4.942,-1.97,-17.52,2.67,-3.67,-2.15,5.77,
4.943,-1.53,-17.61,3.24,-3.67,-2.15,5.77,
4.943,-1.13,-17.73,3.68,-3.67,-2.15,5.77,
4.943,-1.13,-17.73,3.68,-3.52,-2.20,5.87,
4.946,-0.70,-17.95,4.11,-3.52,-2.20,5.87,
4.947,-0.70,-17.95,4.11,-3.34,-2.24,5.97,
4.951,-0.70,-17.95,4.11,-3.15,-2.25,6.07,
4.952,-0.24,-18.16,4.50,-3.15,-2.25,6.07,
4.956,-0.24,-18.16,4.50,-2.95,-2.22,6.17,
4.957,0.25,-18.38,4.82,-2.95,-2.22,6.17,
4.961,0.25,-18.38,4.82,-2.73,-2.18,6.27,
4.961,0.73,-18.68,5.06,-2.73,-2.18,6.27,
4.972,1.21,-19.04,5.11,-2.73,-2.18,6.27,
4.973,1.21,-19.04,5.11,-2.51,-2.11,6.38,
4.973,1.72,-19.49,5.09,-2.51,-2.11,6.38,
4.973,1.72,-19.49,5.09,-2.28,-2.03,6.49,
4.976,1.72,-19.49,5.09,-2.06,-1.94,6.60,
4.976,2.33,-20.07,5.04,-2.06,-1.94,6.60,
4.981,2.33,-20.07,5.04,-1.84,-1.84,6.73,
4.981,2.95,-20.67,4.94,-1.84,-1.84,6.73,
5.006,3.61,-21.31,4.80,-1.84,-1.84,6.73,
5.007,3.61,-21.31,4.80,-1.63,-1.71,6.87,
5.008,4.18,-21.89,4.55,-1.63,-1.71,6.87,
5.008,4.18,-21.89,4.55,-1.43,-1.58,7.01,
5.009,4.76,-22.49,4.17,-1.43,-1.58,7.01,
5.009,4.76,-22.49,4.17,-1.25,-1.43,7.17,
5.01,5.41,-23.10,3.65,-1.25,-1.43,7.17,
5.01,5.41,-23.10,3.65,-1.10,-1.29,7.35,
5.011,6.09,-23.68,3.11,-1.10,-1.29,7.35,
5.011,6.09,-23.68,3.11,-0.98,-1.16,7.54,
5.012,6.09,-23.68,3.11,-0.89,-1.03,7.74,
5.012,6.82,-24.27,2.49,-0.89,-1.03,7.74,
5.016,6.82,-24.27,2.49,-0.84,-0.91,7.95,
5.017,7.62,-24.85,1.88,-0.84,-0.91,7.95,
5.049,7.62,-24.85,1.88,-0.85,-0.79,8.17,
5.05,8.46,-25.43,1.33,-0.85,-0.79,8.17,
5.051,8.46,-25.43,1.33,-0.89,-0.67,8.38,
5.051,9.30,-25.95,0.87,-0.89,-0.67,8.38,
5.052,9.30,-25.95,0.87,-0.96,-0.55,8.61,
5.052,10.01,-26.35,0.67,-0.96,-0.55,8.61,
5.053,10.01,-26.35,0.67,-1.06,-0.43,8.83,
5.054,11.11,-26.87,0.48,-1.06,-0.43,8.83,
5.054,12.39,-27.40,0.18,-1.06,-0.43,8.83,
5.055,12.39,-27.40,0.18,-1.17,-0.31,9.05,
5.055,13.68,-27.99,0.01,-1.17,-0.31,9.05,
5.056,13.68,-27.99,0.01,-1.31,-0.21,9.24,
5.056,15.26,-28.66,-0.23,-1.31,-0.21,9.24,
5.057,15.26,-28.66,-0.23,-1.46,-0.12,9.42,
5.057,15.26,-28.66,-0.23,-1.63,-0.05,9.58,
5.058,16.53,-28.97,-0.28,-1.63,-0.05,9.58,
5.059,17.61,-29.02,0.03,-1.63,-0.05,9.58,
5.059,17.61,-29.02,0.03,-1.81,0.00,9.71,
5.07,17.61,-29.02,0.03,-1.98,0.04,9.82,
5.07,18.69,-28.87,0.41,-1.98,0.04,9.82,
5.071,19.84,-28.69,0.90,-1.98,0.04,9.82,
5.072,19.84,-28.69,0.90,-2.14,0.06,9.91,
5.104,19.84,-28.69,0.90,-2.27,0.06,9.97,
5.105,20.83,-28.38,1.51,-2.27,0.06,9.97,
5.105,20.83,-28.38,1.51,-2.38,0.04,10.00,
5.106,21.70,-27.94,2.20,-2.38,0.04,10.00,
5.106,22.34,-27.38,2.96,-2.38,0.04,10.00,
5.107,22.34,-27.38,2.96,-2.46,0.02,10.01,
5.107,22.34,-27.38,2.96,-2.50,-0.00,10.00,
5.107,22.85,-26.62,3.82,-2.50,-0.00,10.00,
5.108,23.28,-25.83,4.69,-2.50,-0.00,10.00,
5.109,23.28,-25.83,4.69,-2.50,-0.00,9.98,
5.109,23.68,-25.07,5.66,-2.50,-0.00,9.98,
5.11,23.68,-25.07,5.66,-2.47,0.01,9.94,
5.11,24.10,-24.41,6.77,-2.47,0.01,9.94,
5.11,24.10,-24.41,6.77,-2.37,0.04,9.88,
5.111,24.20,-23.48,8.09,-2.37,0.04,9.88,
5.111,24.20,-23.48,8.09,-2.22,0.08,9.81,
5.112,24.20,-23.48,8.09,-1.99,0.12,9.74,
5.113,24.13,-22.03,9.41,-1.99,0.12,9.74,
5.123,24.27,-20.50,10.56,-1.99,0.12,9.74,
5.124,24.27,-20.50,10.56,-1.69,0.14,9.69,
5.125,24.27,-20.50,10.56,-1.30,0.15,9.62,
5.125,24.83,-19.15,11.32,-1.30,0.15,9.62,
5.127,25.52,-17.93,11.71,-1.30,0.15,9.62,
5.127,25.52,-17.93,11.71,-0.86,0.14,9.50,
5.132,26.11,-16.70,11.83,-0.86,0.14,9.50,
5.133,26.11,-16.70,11.83,-0.37,0.12,9.35,
5.154,26.59,-15.45,11.66,-0.37,0.12,9.35,
5.155,26.59,-15.45,11.66,0.14,0.10,9.15,
5.155,26.59,-15.45,11.66,0.65,0.08,8.91,
5.156,26.90,-14.16,11.27,0.65,0.08,8.91,
5.156,27.55,-13.05,10.74,0.65,0.08,8.91,
5.157,27.55,-13.05,10.74,1.16,0.03,8.64,
5.157,27.55,-13.05,10.74,1.64,-0.02,8.32,
5.158,27.58,-11.51,10.07,1.64,-0.02,8.32,
5.158,27.58,-11.51,10.07,2.10,-0.10,7.98,
5.159,27.49,-10.03,9.21,2.10,-0.10,7.98,
5.161,27.49,-10.03,9.21,2.53,-0.16,7.65,
5.162,27.48,-8.62,8.06,2.53,-0.16,7.65,
5.167,27.83,-7.23,6.53,2.53,-0.16,7.65,
5.168,27.83,-7.23,6.53,2.89,-0.20,7.32,
5.171,28.28,-5.97,4.54,2.89,-0.20,7.32,
5.172,28.28,-5.97,4.54,3.17,-0.21,6.97,
5.176,28.28,-5.97,4.54,3.31,-0.21,6.58,
5.176,28.12,-4.93,2.29,3.31,-0.21,6.58,
5.181,27.44,-4.03,0.16,3.31,-0.21,6.58,
5.181,27.44,-4.03,0.16,3.30,-0.17,6.16,
5.191,26.70,-3.12,-1.59,3.30,-0.17,6.16,
5.192,26.70,-3.12,-1.59,3.11,-0.04,5.74,
5.193,26.70,-3.12,-1.59,2.78,0.16,5.34,
5.193,26.36,-2.43,-3.13,2.78,0.16,5.34,
5.195,26.00,-1.66,-4.16,2.78,0.16,5.34,
5.196,26.00,-1.66,-4.16,2.34,0.43,4.97,
5.232,26.00,-1.66,-4.16,1.84,0.74,4.65,
5.233,25.51,-0.80,-4.43,1.84,0.74,4.65,
5.234,25.51,-0.80,-4.43,1.31,1.08,4.37,
5.234,24.89,0.15,-4.03,1.31,1.08,4.37,
5.235,24.89,0.15,-4.03,0.81,1.43,4.14,
5.235,24.22,1.02,-3.26,0.81,1.43,4.14,
5.236,24.22,1.02,-3.26,0.34,1.75,3.95,
5.236,23.71,1.77,-2.42,0.34,1.75,3.95,
5.237,23.45,2.35,-1.63,0.34,1.75,3.95,
5.237,23.45,2.35,-1.63,-0.09,2.04,3.79,
5.238,23.38,2.84,-0.93,-0.09,2.04,3.79,
5.239,23.38,2.84,-0.93,-0.47,2.31,3.62,
5.239,23.38,2.84,-0.93,-0.83,2.55,3.46,
5.24,23.40,3.25,-0.18,-0.83,2.55,3.46,
5.24,23.40,3.25,-0.18,-1.13,2.77,3.27,
5.241,23.46,3.52,0.61,-1.13,2.77,3.27,
5.241,23.50,3.82,1.40,-1.13,2.77,3.27,
5.242,23.50,3.82,1.40,-1.40,2.98,3.06,
5.244,23.41,4.05,2.25,-1.40,2.98,3.06,
5.245,23.41,4.05,2.25,-1.63,3.16,2.84,
5.249,23.30,4.38,3.16,-1.63,3.16,2.84,
5.25,23.30,4.38,3.16,-1.80,3.32,2.60,
5.254,23.30,4.38,3.16,-1.93,3.45,2.34,
5.255,23.13,4.71,4.02,-1.93,3.45,2.34,
5.259,22.93,4.89,4.79,-1.93,3.45,2.34,
5.26,22.93,4.89,4.79,-2.00,3.54,2.07,
5.303,22.93,4.89,4.79,-2.03,3.59,1.79,
5.304,22.67,5.05,5.52,-2.03,3.59,1.79,
5.304,22.25,5.06,6.11,-2.03,3.59,1.79,
5.305,22.25,5.06,6.11,-2.00,3.61,1.52,
5.305,21.74,5.03,6.60,-2.00,3.61,1.52,
5.306,21.74,5.03,6.60,-1.93,3.60,1.24,
5.306,21.06,4.95,6.91,-1.93,3.60,1.24,
5.307,21.06,4.95,6.91,-1.81,3.55,0.98,
5.307,20.33,4.83,7.11,-1.81,3.55,0.98,
5.308,20.33,4.83,7.11,-1.66,3.47,0.75,
5.308,19.49,4.82,7.17,-1.66,3.47,0.75,
5.309,19.49,4.82,7.17,-1.50,3.36,0.54,
5.309,18.64,4.81,7.06,-1.50,3.36,0.54,
5.309,18.64,4.81,7.06,-1.32,3.22,0.36,
5.31,18.64,4.81,7.06,-1.13,3.06,0.21,
5.31,17.87,4.86,6.95,-1.13,3.06,0.21,
5.311,17.12,4.97,6.76,-1.13,3.06,0.21,
5.311,17.12,4.97,6.76,-0.95,2.86,0.10,
5.312,16.44,5.20,6.51,-0.95,2.86,0.10,
5.312,16.44,5.20,6.51,-0.77,2.65,0.01,
5.313,16.44,5.20,6.51,-0.61,2.41,-0.05,
5.313,15.83,5.39,6.24,-0.61,2.41,-0.05,
5.326,15.83,5.39,6.24,-0.45,2.15,-0.10,
5.327,15.27,5.60,5.95,-0.45,2.15,-0.10,
5.327,15.27,5.60,5.95,-0.31,1.89,-0.13,
5.328,14.77,5.79,5.67,-0.31,1.89,-0.13,
5.328,14.77,5.79,5.67,-0.18,1.61,-0.14,
5.329,14.41,6.01,5.41,-0.18,1.61,-0.14,
5.332,14.41,6.01,5.41,-0.06,1.32,-0.15,
5.333,14.24,6.23,5.14,-0.06,1.32,-0.15,
5.359,14.24,6.23,5.14,0.04,1.02,-0.15,
5.36,14.20,6.44,4.92,0.04,1.02,-0.15,
5.36,14.20,6.44,4.92,0.13,0.70,-0.15,
5.36,14.47,6.42,4.65,0.13,0.70,-0.15,
5.361,14.47,6.42,4.65,0.20,0.37,-0.16,
5.361,14.98,6.38,4.33,0.20,0.37,-0.16,
5.361,14.98,6.38,4.33,0.25,0.02,-0.21,
5.362,15.24,6.67,4.22,0.25,0.02,-0.21,
5.362,15.24,6.67,4.22,0.30,-0.34,-0.27,
5.362,15.33,6.75,4.13,0.30,-0.34,-0.27,
5.363,15.33,6.75,4.13,0.36,-0.70,-0.32,
5.363,15.73,6.85,3.93,0.36,-0.70,-0.32,
5.367,15.73,6.85,3.93,0.41,-1.07,-0.38,
5.368,16.20,6.93,3.71,0.41,-1.07,-0.38,
5.371,16.20,6.93,3.71,0.47,-1.47,-0.46,
5.372,16.73,6.98,3.57,0.47,-1.47,-0.46,
5.376,16.73,6.98,3.57,0.52,-1.86,-0.53,
5.376,17.22,6.95,3.47,0.52,-1.86,-0.53,
5.38,17.72,6.90,3.50,0.52,-1.86,-0.53,
5.381,17.72,6.90,3.50,0.57,-2.26,-0.61,
5.386,18.22,6.84,3.53,0.57,-2.26,-0.61,
5.387,18.22,6.84,3.53,0.62,-2.66,-0.68,
5.39,18.84,6.74,3.51,0.62,-2.66,-0.68,
5.391,18.84,6.74,3.51,0.67,-3.03,-0.76,
5.395,19.60,6.64,3.46,0.67,-3.03,-0.76,
5.396,19.60,6.64,3.46,0.72,-3.39,-0.86,
5.412,19.60,6.64,3.46,0.77,-3.72,-0.99,
5.413,20.45,6.45,3.44,0.77,-3.72,-0.99,
5.414,21.34,6.13,3.49,0.77,-3.72,-0.99,
5.414,21.34,6.13,3.49,0.82,-4.01,-1.15,
5.415,22.04,5.77,3.55,0.82,-4.01,-1.15,
5.416,22.04,5.77,3.55,0.88,-4.24,-1.35,
5.417,22.43,5.41,3.59,0.88,-4.24,-1.35,
5.417,22.43,5.41,3.59,0.93,-4.40,-1.59,
5.458,22.43,5.41,3.59,0.97,-4.50,-1.86,
5.459,22.68,5.16,3.55,0.97,-4.50,-1.86,
5.46,22.86,4.92,3.50,0.97,-4.50,-1.86,
5.46,22.86,4.92,3.50,1.00,-4.57,-2.14,
5.461,22.86,4.92,3.50,1.02,-4.62,-2.44,
5.461,22.98,4.66,3.40,1.02,-4.62,-2.44,
5.462,22.98,4.66,3.40,1.02,-4.65,-2.76,
5.462,23.06,4.26,3.39,1.02,-4.65,-2.76,
5.463,23.06,4.26,3.39,1.00,-4.67,-3.09,
5.463,23.05,3.75,3.24,1.00,-4.67,-3.09,
5.464,22.90,3.13,3.11,1.00,-4.67,-3.09,
5.465,22.90,3.13,3.11,0.96,-4.66,-3.41,
5.465,22.90,3.13,3.11,0.89,-4.62,-3.72,
5.466,22.71,2.46,2.87,0.89,-4.62,-3.72,
5.466,22.65,1.69,2.59,0.89,-4.62,-3.72,
5.467,22.65,1.69,2.59,0.78,-4.55,-4.04,
5.468,22.65,1.69,2.59,0.63,-4.46,-4.35,
5.468,22.66,0.80,2.28,0.63,-4.46,-4.35,
5.469,22.64,-0.18,2.03,0.63,-4.46,-4.35,
5.47,22.64,-0.18,2.03,0.45,-4.36,-4.65,
5.471,22.64,-0.18,2.03,0.23,-4.22,-4.95,
5.471,22.64,-1.26,1.81,0.23,-4.22,-4.95,
5.474,22.64,-1.26,1.81,-0.02,-4.05,-5.24,
5.475,22.58,-2.40,1.67,-0.02,-4.05,-5.24,
5.479,22.58,-2.40,1.67,-0.29,-3.85,-5.52,
5.479,22.55,-3.63,1.61,-0.29,-3.85,-5.52,
5.485,22.55,-3.63,1.61,-0.58,-3.63,-5.78,
5.486,22.55,-4.86,1.76,-0.58,-3.63,-5.78,
5.488,22.55,-4.86,1.76,-0.86,-3.38,-6.03,
5.489,22.48,-6.18,2.02,-0.86,-3.38,-6.03,
5.493,22.48,-6.18,2.02,-1.13,-3.12,-6.26,
5.494,22.49,-7.51,2.39,-1.13,-3.12,-6.26,
5.498,22.49,-7.51,2.39,-1.37,-2.86,-6.48,
5.499,22.53,-8.92,2.82,-1.37,-2.86,-6.48,
5.503,22.53,-8.92,2.82,-1.59,-2.62,-6.69,
5.504,22.68,-10.30,3.36,-1.59,-2.62,-6.69,
5.544,22.92,-11.68,3.90,-1.59,-2.62,-6.69,
5.544,22.92,-11.68,3.90,-1.78,-2.39,-6.89,
5.545,23.20,-13.15,4.44,-1.78,-2.39,-6.89,
5.546,23.20,-13.15,4.44,-1.94,-2.20,-7.08,
5.546,23.20,-13.15,4.44,-2.06,-2.01,-7.28,
5.547,23.46,-14.67,4.90,-2.06,-2.01,-7.28,
5.547,23.72,-16.14,5.34,-2.06,-2.01,-7.28,
5.548,23.72,-16.14,5.34,-2.14,-1.81,-7.46,
5.549,23.91,-17.50,5.66,-2.14,-1.81,-7.46,
5.549,23.91,-17.50,5.66,-2.20,-1.60,-7.64,
5.55,23.91,-17.50,5.66,-2.22,-1.39,-7.82,
5.551,24.07,-18.79,5.96,-2.22,-1.39,-7.82,
5.551,24.35,-20.03,6.24,-2.22,-1.39,-7.82,
5.552,24.35,-20.03,6.24,-2.22,-1.19,-8.01,
5.553,24.35,-20.03,6.24,-2.17,-1.00,-8.21,
5.553,24.52,-21.26,6.40,-2.17,-1.00,-8.21,
5.554,24.71,-22.51,6.46,-2.17,-1.00,-8.21,
5.554,24.71,-22.51,6.46,-2.11,-0.82,-8.41,
5.555,24.75,-23.79,6.46,-2.11,-0.82,-8.41,
5.556,24.75,-23.79,6.46,-2.01,-0.66,-8.61,
5.556,24.76,-25.13,6.44,-2.01,-0.66,-8.61,
5.557,24.76,-25.13,6.44,-1.88,-0.50,-8.80,
5.568,24.61,-26.46,6.41,-1.88,-0.50,-8.80,
5.569,24.61,-26.46,6.41,-1.73,-0.33,-8.97,
5.57,24.23,-27.61,6.26,-1.73,-0.33,-8.97,
5.57,24.23,-27.61,6.26,-1.55,-0.15,-9.12,
5.571,23.57,-28.39,6.13,-1.55,-0.15,-9.12,
5.572,23.57,-28.39,6.13,-1.36,0.06,-9.24,
5.576,23.57,-28.39,6.13,-1.16,0.30,-9.33,
5.576,22.73,-28.83,5.79,-1.16,0.30,-9.33,
5.581,22.73,-28.83,5.79,-0.95,0.56,-9.40,
5.581,22.04,-29.23,5.37,-0.95,0.56,-9.40,
5.604,22.04,-29.23,5.37,-0.74,0.81,-9.45,
5.605,21.59,-29.81,4.66,-0.74,0.81,-9.45,
5.606,21.59,-29.81,4.66,-0.54,1.03,-9.48,
5.606,21.25,-30.59,3.78,-0.54,1.03,-9.48,
5.607,21.04,-31.45,2.85,-0.54,1.03,-9.48,
5.607,21.04,-31.45,2.85,-0.36,1.22,-9.48,
5.608,20.76,-32.27,2.02,-0.36,1.22,-9.48,
5.608,20.76,-32.27,2.02,-0.20,1.41,-9.48,
5.609,20.33,-32.89,1.23,-0.20,1.41,-9.48,
5.61,20.33,-32.89,1.23,-0.06,1.62,-9.46,
5.61,19.66,-33.09,0.58,-0.06,1.62,-9.46,
5.611,19.66,-33.09,0.58,0.07,1.84,-9.42,
5.615,19.66,-33.09,0.58,0.18,2.05,-9.37,
5.616,18.88,-33.00,-0.10,0.18,2.05,-9.37,
5.621,18.88,-33.00,-0.10,0.28,2.26,-9.30,
5.621,18.06,-32.89,-0.74,0.28,2.26,-9.30,
5.625,18.06,-32.89,-0.74,0.37,2.44,-9.23,
5.625,17.24,-32.58,-1.23,0.37,2.44,-9.23,
5.63,17.24,-32.58,-1.23,0.46,2.59,-9.14,
5.631,16.62,-32.34,-1.63,0.46,2.59,-9.14,
5.641,16.62,-32.34,-1.63,0.56,2.72,-9.06,
5.642,15.96,-32.33,-2.22,0.56,2.72,-9.06,
5.642,15.96,-32.33,-2.22,0.61,2.77,-8.98,
5.643,15.07,-32.15,-2.67,0.61,2.77,-8.98,
5.644,15.07,-32.15,-2.67,0.61,2.74,-8.89,
5.644,14.06,-31.90,-3.03,0.61,2.74,-8.89,
5.649,14.06,-31.90,-3.03,0.59,2.68,-8.80,
5.65,13.10,-31.53,-3.26,0.59,2.68,-8.80,
5.675,12.21,-31.13,-3.32,0.59,2.68,-8.80,
5.676,12.21,-31.13,-3.32,0.56,2.62,-8.70,
5.677,11.22,-30.66,-3.04,0.56,2.62,-8.70,
5.677,11.22,-30.66,-3.04,0.54,2.56,-8.60,
5.678,10.22,-30.14,-2.56,0.54,2.56,-8.60,
5.678,10.22,-30.14,-2.56,0.53,2.49,-8.49,
5.679,9.18,-29.60,-1.89,0.53,2.49,-8.49,
5.679,9.18,-29.60,-1.89,0.56,2.38,-8.37,
5.679,9.18,-29.60,-1.89,0.62,2.23,-8.25,
5.68,8.26,-29.16,-1.13,0.62,2.23,-8.25,
5.68,8.26,-29.16,-1.13,0.72,2.03,-8.12,
5.681,7.56,-28.88,-0.56,0.72,2.03,-8.12,
5.683,7.56,-28.88,-0.56,0.85,1.77,-7.98,
5.684,6.86,-28.51,0.04,0.85,1.77,-7.98,
5.693,6.86,-28.51,0.04,0.99,1.47,-7.85,
5.694,6.14,-28.09,0.57,0.99,1.47,-7.85,
5.694,5.63,-27.78,0.97,0.99,1.47,-7.85,
5.695,5.63,-27.78,0.97,1.16,1.14,-7.71,
5.698,5.63,-27.78,0.97,1.34,0.80,-7.58,
5.698,5.11,-27.37,1.41,1.34,0.80,-7.58,
5.724,4.64,-27.05,1.76,1.34,0.80,-7.58,
5.725,4.64,-27.05,1.76,1.52,0.44,-7.46,
5.726,4.64,-27.05,1.76,1.71,0.09,-7.34,
5.726,4.15,-26.75,2.10,1.71,0.09,-7.34,
5.727,3.72,-26.44,2.39,1.71,0.09,-7.34,
5.727,3.72,-26.44,2.39,1.89,-0.27,-7.22,
5.727,3.34,-26.10,2.65,1.89,-0.27,-7.22,
5.728,3.34,-26.10,2.65,2.07,-0.62,-7.10,
5.728,3.02,-25.71,2.85,2.07,-0.62,-7.10,
5.729,3.02,-25.71,2.85,2.23,-0.96,-7.00,
5.729,3.02,-25.71,2.85,2.37,-1.28,-6.89,
5.73,2.72,-25.32,2.96,2.37,-1.28,-6.89,
5.732,2.46,-25.01,3.07,2.37,-1.28,-6.89,
5.732,2.46,-25.01,3.07,2.50,-1.58,-6.79,
5.737,2.28,-24.76,3.12,2.50,-1.58,-6.79,
5.738,2.28,-24.76,3.12,2.60,-1.86,-6.68,
5.742,2.07,-24.41,3.22,2.60,-1.86,-6.68,
5.742,2.07,-24.41,3.22,2.68,-2.10,-6.58,
5.747,1.93,-24.11,3.34,2.68,-2.10,-6.58,
5.747,1.93,-24.11,3.34,2.74,-2.30,-6.47,
5.778,1.91,-23.89,3.37,2.74,-2.30,-6.47,
5.779,1.91,-23.89,3.37,2.78,-2.47,-6.37,
5.779,1.99,-23.71,3.45,2.78,-2.47,-6.37,
5.78,1.99,-23.71,3.45,2.80,-2.60,-6.27,
5.78,1.99,-23.71,3.45,2.81,-2.70,-6.17,
5.781,2.04,-23.55,3.52,2.81,-2.70,-6.17,
5.781,2.04,-23.55,3.52,2.79,-2.75,-6.08,
5.782,2.10,-23.27,3.53,2.79,-2.75,-6.08,
5.782,2.10,-23.27,3.53,2.75,-2.77,-5.99,
5.783,2.12,-23.07,3.58,2.75,-2.77,-5.99,
5.783,2.07,-22.80,3.53,2.75,-2.77,-5.99,
5.784,2.07,-22.80,3.53,2.69,-2.74,-5.92,
5.784,1.92,-22.53,3.50,2.69,-2.74,-5.92,
5.785,1.92,-22.53,3.50,2.61,-2.67,-5.86,
5.785,1.78,-22.29,3.49,2.61,-2.67,-5.86,
5.786,1.78,-22.29,3.49,2.51,-2.57,-5.80,
5.797,1.60,-22.16,3.55,2.51,-2.57,-5.80,
5.798,1.60,-22.16,3.55,2.39,-2.42,-5.75,
5.798,1.60,-22.16,3.55,2.27,-2.25,-5.68,
5.798,1.56,-22.19,3.49,2.27,-2.25,-5.68,
5.833,1.64,-22.11,3.57,2.27,-2.25,-5.68,
5.834,1.64,-22.11,3.57,2.13,-2.05,-5.61,
5.835,1.64,-22.11,3.57,1.99,-1.82,-5.56,
5.835,1.86,-22.12,3.59,1.99,-1.82,-5.56,
5.836,1.86,-22.12,3.59,1.84,-1.58,-5.53,
5.836,2.07,-22.11,3.54,1.84,-1.58,-5.53,
5.836,2.07,-22.11,3.54,1.67,-1.34,-5.54,
5.837,2.06,-22.21,3.40,1.67,-1.34,-5.54,
5.837,2.06,-22.21,3.40,1.50,-1.10,-5.56,
5.837,1.90,-22.56,3.17,1.50,-1.10,-5.56,
5.838,1.90,-22.56,3.17,1.32,-0.86,-5.59,
5.838,1.46,-23.03,2.85,1.32,-0.86,-5.59,
5.839,0.68,-23.44,2.61,1.32,-0.86,-5.59,
5.839,0.68,-23.44,2.61,1.14,-0.63,-5.63,
5.839,0.68,-23.44,2.61,0.95,-0.42,-5.65,
5.84,-0.35,-23.75,2.54,0.95,-0.42,-5.65,
5.84,-1.62,-23.91,2.70,0.95,-0.42,-5.65,
5.841,-1.62,-23.91,2.70,0.79,-0.23,-5.64,
5.845,-3.14,-24.17,3.03,0.79,-0.23,-5.64,
5.845,-3.14,-24.17,3.03,0.65,-0.08,-5.59,
5.85,-4.74,-24.51,3.49,0.65,-0.08,-5.59,
5.85,-4.74,-24.51,3.49,0.56,-0.01,-5.50,
5.861,-6.27,-24.83,4.13,0.56,-0.01,-5.50,
5.862,-6.27,-24.83,4.13,0.53,-0.06,-5.35,
5.862,-7.86,-25.06,4.73,0.53,-0.06,-5.35,
5.862,-7.86,-25.06,4.73,0.56,-0.22,-5.15,
5.864,-9.29,-25.22,5.05,0.56,-0.22,-5.15,
5.865,-9.29,-25.22,5.05,0.64,-0.51,-4.89,
5.906,-9.29,-25.22,5.05,0.75,-0.89,-4.59,
5.907,-10.47,-25.22,5.05,0.75,-0.89,-4.59,
5.908,-10.47,-25.22,5.05,0.86,-1.31,-4.26,
5.908,-11.31,-25.34,4.88,0.86,-1.31,-4.26,
5.909,-11.31,-25.34,4.88,0.94,-1.74,-3.93,
5.909,-12.08,-25.65,4.72,0.94,-1.74,-3.93,
5.91,-12.08,-25.65,4.72,0.99,-2.13,-3.61,
5.91,-12.94,-26.13,4.45,0.99,-2.13,-3.61,
5.911,-12.94,-26.13,4.45,1.01,-2.48,-3.28,
5.911,-13.80,-26.57,4.34,1.01,-2.48,-3.28,
5.912,-13.80,-26.57,4.34,1.00,-2.81,-2.93,
5.912,-14.53,-26.92,4.34,1.00,-2.81,-2.93,
5.913,-15.11,-27.24,4.58,1.00,-2.81,-2.93,
5.913,-15.11,-27.24,4.58,0.95,-3.10,-2.55,
5.914,-15.11,-27.24,4.58,0.89,-3.36,-2.15,
5.914,-15.48,-27.65,5.15,0.89,-3.36,-2.15,
5.915,-15.48,-27.65,5.15,0.82,-3.54,-1.71,
5.915,-15.69,-28.22,5.90,0.82,-3.54,-1.71,
5.915,-15.86,-28.71,6.60,0.82,-3.54,-1.71,
5.916,-15.86,-28.71,6.60,0.77,-3.63,-1.24,
5.917,-15.86,-28.71,6.60,0.73,-3.63,-0.73,
5.918,-15.98,-29.02,7.15,0.73,-3.63,-0.73,
5.927,-16.10,-29.22,7.50,0.73,-3.63,-0.73,
5.928,-16.10,-29.22,7.50,0.70,-3.55,-0.19,
5.928,-16.19,-29.29,7.68,0.70,-3.55,-0.19,
5.929,-16.19,-29.29,7.68,0.65,-3.40,0.39,
5.932,-16.02,-29.31,7.83,0.65,-3.40,0.39,
5.932,-16.02,-29.31,7.83,0.59,-3.19,1.00,
5.953,-15.46,-29.33,8.08,0.59,-3.19,1.00,
5.955,-15.46,-29.33,8.08,0.50,-2.93,1.63,
5.955,-14.72,-29.36,8.65,0.50,-2.93,1.63,
5.956,-14.72,-29.36,8.65,0.42,-2.62,2.26,
5.956,-14.72,-29.36,8.65,0.34,-2.27,2.89,
5.956,-13.95,-29.36,9.37,0.34,-2.27,2.89,
5.957,-13.95,-29.36,9.37,0.29,-1.88,3.52,
5.957,-13.15,-29.58,10.05,0.29,-1.88,3.52,
5.958,-13.15,-29.58,10.05,0.27,-1.48,4.15,
5.958,-12.45,-29.99,10.56,0.27,-1.48,4.15,
5.962,-12.45,-29.99,10.56,0.28,-1.05,4.81,
5.962,-11.74,-30.46,11.02,0.28,-1.05,4.81,
5.966,-10.80,-30.85,11.42,0.28,-1.05,4.81,
5.967,-10.80,-30.85,11.42,0.29,-0.59,5.50,
5.971,-10.80,-30.85,11.42,0.33,-0.11,6.21,
5.972,-9.76,-31.23,11.69,0.33,-0.11,6.21,
5.976,-8.45,-31.73,11.87,0.33,-0.11,6.21,
5.977,-8.45,-31.73,11.87,0.37,0.39,6.93,
5.981,-6.84,-32.27,11.90,0.37,0.39,6.93,
5.981,-6.84,-32.27,11.90,0.42,0.88,7.65,
5.994,-4.69,-32.74,11.80,0.42,0.88,7.65,
5.995,-4.69,-32.74,11.80,0.47,1.36,8.35,
5.995,-2.20,-33.00,11.55,0.47,1.36,8.35,
5.996,-2.20,-33.00,11.55,0.51,1.79,9.02,
6.033,0.35,-33.28,11.05,0.51,1.79,9.02,
6.034,0.35,-33.28,11.05,0.55,2.20,9.63,
6.035,3.00,-33.47,10.29,0.55,2.20,9.63,
6.035,3.00,-33.47,10.29,0.56,2.57,10.17,
6.036,5.88,-33.59,9.39,0.56,2.57,10.17,
6.037,5.88,-33.59,9.39,0.54,2.91,10.63,
6.038,8.97,-33.63,8.28,0.54,2.91,10.63,
6.038,8.97,-33.63,8.28,0.47,3.22,11.02,
6.039,11.92,-33.62,7.20,0.47,3.22,11.02,
6.04,11.92,-33.62,7.20,0.35,3.51,11.31,
6.04,11.92,-33.62,7.20,0.18,3.81,11.48,
6.041,14.40,-33.49,6.23,0.18,3.81,11.48,
6.041,16.20,-33.29,5.57,0.18,3.81,11.48,
6.042,16.20,-33.29,5.57,-0.03,4.11,11.54,
6.042,16.20,-33.29,5.57,-0.27,4.39,11.52,
6.043,17.36,-33.13,5.07,-0.27,4.39,11.52,
6.043,17.36,-33.13,5.07,-0.53,4.64,11.46,
6.044,17.99,-33.23,4.82,-0.53,4.64,11.46,
6.044,18.22,-33.45,4.68,-0.53,4.64,11.46,
6.045,18.22,-33.45,4.68,-0.78,4.85,11.39,
6.046,18.28,-33.62,4.55,-0.78,4.85,11.39,
6.046,18.28,-33.62,4.55,-1.02,5.02,11.33,
6.061,18.28,-33.62,4.55,-1.25,5.14,11.28,
6.062,18.54,-33.73,4.34,-1.25,5.14,11.28,
6.063,19.21,-33.73,3.94,-1.25,5.14,11.28,
6.063,19.21,-33.73,3.94,-1.46,5.18,11.25,
6.064,19.97,-33.80,3.49,-1.46,5.18,11.25,
6.064,19.97,-33.80,3.49,-1.65,5.12,11.22,
6.065,19.97,-33.80,3.49,-1.82,4.99,11.16,
6.065,20.75,-34.10,2.98,-1.82,4.99,11.16,
6.098,20.75,-34.10,2.98,-1.97,4.81,11.07,
6.099,21.57,-34.46,2.44,-1.97,4.81,11.07,
6.1,21.57,-34.46,2.44,-2.10,4.57,10.98,
6.1,22.44,-34.73,2.07,-2.10,4.57,10.98,
6.101,22.44,-34.73,2.07,-2.21,4.28,10.88,
6.101,23.25,-35.01,1.67,-2.21,4.28,10.88,
6.102,23.25,-35.01,1.67,-2.29,3.93,10.79,
6.103,23.62,-35.47,1.09,-2.29,3.93,10.79,
6.103,23.62,-35.47,1.09,-2.36,3.53,10.72,
6.104,24.13,-36.06,0.41,-2.36,3.53,10.72,
6.105,24.13,-36.06,0.41,-2.43,3.12,10.68,
6.105,24.92,-36.77,-0.25,-2.43,3.12,10.68,
6.106,24.92,-36.77,-0.25,-2.48,2.70,10.64,
6.106,25.70,-36.74,-0.98,-2.48,2.70,10.64,
6.107,25.70,-36.74,-0.98,-2.55,2.27,10.62,
6.107,26.26,-36.26,-1.67,-2.55,2.27,10.62,
6.114,26.77,-35.79,-2.26,-2.55,2.27,10.62,
6.116,26.77,-35.79,-2.26,-2.62,1.82,10.65,
6.117,27.51,-35.32,-2.80,-2.62,1.82,10.65,
6.117,27.51,-35.32,-2.80,-2.71,1.36,10.72,
6.118,27.51,-35.32,-2.80,-2.79,0.88,10.83,
6.118,28.69,-34.87,-3.18,-2.79,0.88,10.83,
6.146,28.69,-34.87,-3.18,-2.87,0.42,10.98,
6.147,29.99,-34.41,-3.25,-2.87,0.42,10.98,
6.147,29.99,-34.41,-3.25,-2.92,-0.02,11.13,
6.148,31.19,-33.96,-2.91,-2.92,-0.02,11.13,
6.149,31.19,-33.96,-2.91,-2.92,-0.44,11.28,
6.149,31.82,-33.52,-2.17,-2.92,-0.44,11.28,
6.15,31.82,-33.52,-2.17,-2.87,-0.81,11.44,
6.15,32.12,-33.09,-1.12,-2.87,-0.81,11.44,
6.151,32.12,-33.09,-1.12,-2.74,-1.18,11.60,
6.151,32.44,-32.68,0.06,-2.74,-1.18,11.60,
6.153,32.80,-32.28,1.18,-2.74,-1.18,11.60,
6.154,32.80,-32.28,1.18,-2.52,-1.53,11.74,
6.154,32.80,-32.28,1.18,-2.20,-1.86,11.78,
6.154,33.18,-31.90,2.08,-2.20,-1.86,11.78,
6.156,33.58,-31.55,2.62,-2.20,-1.86,11.78,
6.157,33.58,-31.55,2.62,-1.79,-2.19,11.65,
6.161,33.58,-31.55,2.62,-1.34,-2.54,11.34,
6.162,34.00,-29.81,2.74,-1.34,-2.54,11.34,
6.166,34.42,-26.02,2.31,-1.34,-2.54,11.34,
6.167,34.42,-26.02,2.31,-0.88,-2.92,10.87,
6.177,34.83,-22.93,2.04,-0.88,-2.92,10.87,
6.178,34.83,-22.93,2.04,-0.44,-3.33,10.26,
6.178,35.23,-20.25,1.25,-0.44,-3.33,10.26,
6.179,35.23,-20.25,1.25,-0.06,-3.70,9.60,
6.18,35.23,-20.25,1.25,0.26,-4.00,8.99,
6.181,35.62,-17.87,-0.03,0.26,-4.00,8.99,
6.21,35.62,-17.87,-0.03,0.48,-4.18,8.44,
6.211,35.99,-16.18,-0.44,0.48,-4.18,8.44,
6.212,35.99,-16.18,-0.44,0.62,-4.24,7.98,
6.212,36.35,-14.46,-0.32,0.62,-4.24,7.98,
6.213,36.35,-14.46,-0.32,0.72,-4.20,7.61,
6.213,35.59,-12.61,0.37,0.72,-4.20,7.61,
6.214,35.59,-12.61,0.37,0.79,-4.08,7.30,
6.214,35.33,-10.45,0.77,0.79,-4.08,7.30,
6.215,35.33,-10.45,0.77,0.87,-3.93,7.00,
6.215,36.08,-8.58,1.06,0.87,-3.93,7.00,
6.216,36.08,-8.58,1.06,0.93,-3.74,6.66,
6.216,35.94,-6.73,1.75,0.93,-3.74,6.66,
6.217,34.49,-4.96,2.80,0.93,-3.74,6.66,
6.217,34.49,-4.96,2.80,1.03,-3.46,6.30,
6.243,34.49,-4.96,2.80,1.17,-3.10,5.99,
6.244,32.80,-3.50,3.88,1.17,-3.10,5.99,
6.244,32.80,-3.50,3.88,1.34,-2.68,5.72,
6.245,31.86,-2.38,4.36,1.34,-2.68,5.72,
6.245,31.86,-2.38,4.36,1.52,-2.24,5.48,
6.246,31.49,-1.46,4.35,1.52,-2.24,5.48,
6.246,31.49,-1.46,4.35,1.68,-1.76,5.24,
6.246,31.13,-0.63,4.14,1.68,-1.76,5.24,
6.278,31.13,-0.63,4.14,1.82,-1.25,4.99,
6.278,30.57,0.18,3.80,1.82,-1.25,4.99,
6.279,30.57,0.18,3.80,1.93,-0.71,4.72,
6.279,29.94,0.87,3.28,1.93,-0.71,4.72,
6.28,29.94,0.87,3.28,2.01,-0.16,4.45,
6.28,29.37,1.38,2.47,2.01,-0.16,4.45,
6.281,29.37,1.38,2.47,2.03,0.40,4.18,
6.281,28.69,1.66,1.49,2.03,0.40,4.18,
6.281,28.69,1.66,1.49,2.00,0.95,3.90,
6.282,27.85,1.79,0.52,2.00,0.95,3.90,
6.282,27.85,1.79,0.52,1.92,1.49,3.64,
6.283,26.88,1.88,-0.35,1.92,1.49,3.64,
6.283,26.88,1.88,-0.35,1.79,2.00,3.40,
6.284,25.85,1.91,-1.06,1.79,2.00,3.40,
6.284,24.85,2.02,-1.72,1.79,2.00,3.40,
6.284,24.85,2.02,-1.72,1.63,2.47,3.17,
6.285,23.83,2.08,-2.24,1.63,2.47,3.17,
6.285,23.83,2.08,-2.24,1.46,2.90,2.98,
6.286,22.78,2.14,-2.61,1.46,2.90,2.98,
6.286,22.78,2.14,-2.61,1.26,3.27,2.80,
6.288,21.83,2.20,-2.80,1.26,3.27,2.80,
6.289,21.83,2.20,-2.80,1.07,3.58,2.66,
6.293,21.83,2.20,-2.80,0.87,3.84,2.53,
6.293,20.98,2.36,-2.92,0.87,3.84,2.53,
6.298,20.30,2.60,-2.89,0.87,3.84,2.53,
6.298,20.30,2.60,-2.89,0.67,4.03,2.41,
6.303,19.59,2.82,-2.83,0.67,4.03,2.41,
6.304,19.59,2.82,-2.83,0.49,4.17,2.30,
6.307,18.82,3.04,-2.73,0.49,4.17,2.30,
6.308,18.82,3.04,-2.73,0.31,4.26,2.20,
6.313,18.82,3.04,-2.73,0.15,4.32,2.11,
6.313,17.96,3.29,-2.65,0.15,4.32,2.11,
6.317,16.97,3.60,-2.62,0.15,4.32,2.11,
6.317,16.97,3.60,-2.62,-0.02,4.34,2.03,
6.326,16.97,3.60,-2.62,-0.18,4.31,1.97,
6.327,16.02,3.95,-2.59,-0.18,4.31,1.97,
6.329,16.02,3.95,-2.59,-0.35,4.25,1.94,
6.329,15.05,4.30,-2.55,-0.35,4.25,1.94,
6.332,14.18,4.68,-2.44,-0.35,4.25,1.94,
6.332,14.18,4.68,-2.44,-0.52,4.14,1.94,
6.354,13.35,5.11,-2.32,-0.52,4.14,1.94,
6.354,13.35,5.11,-2.32,-0.70,3.99,1.95,
6.355,12.63,5.64,-2.14,-0.70,3.99,1.95,
6.355,12.63,5.64,-2.14,-0.88,3.81,1.99,
6.356,12.63,5.64,-2.14,-1.07,3.62,2.05,
6.356,11.97,6.07,-1.91,-1.07,3.62,2.05,
6.357,11.97,6.07,-1.91,-1.26,3.41,2.11,
6.357,11.46,6.46,-1.58,-1.26,3.41,2.11,
6.357,11.04,6.79,-1.07,-1.26,3.41,2.11,
6.358,11.04,6.79,-1.07,-1.45,3.18,2.20,
6.361,11.04,6.79,-1.07,-1.63,2.95,2.30,
6.362,10.69,7.12,-0.44,-1.63,2.95,2.30,
6.366,10.36,7.54,0.37,-1.63,2.95,2.30,
6.366,10.36,7.54,0.37,-1.80,2.73,2.41,
6.371,10.11,7.89,1.22,-1.80,2.73,2.41,
6.372,10.11,7.89,1.22,-1.94,2.51,2.53,
6.376,9.95,8.13,2.13,-1.94,2.51,2.53,
6.377,9.95,8.13,2.13,-2.05,2.29,2.65,
6.381,9.94,8.39,3.11,-2.05,2.29,2.65,
6.382,9.94,8.39,3.11,-2.14,2.04,2.80,
6.396,9.94,8.39,3.11,-2.19,1.75,2.96,
6.397,10.32,8.61,4.17,-2.19,1.75,2.96,
6.398,11.32,8.80,5.15,-2.19,1.75,2.96,
6.399,11.32,8.80,5.15,-2.20,1.43,3.12,
6.399,12.94,8.97,6.11,-2.20,1.43,3.12,
6.399,12.94,8.97,6.11,-2.16,1.08,3.26,
6.4,14.88,9.21,6.99,-2.16,1.08,3.26,
6.4,14.88,9.21,6.99,-2.07,0.74,3.34,
6.444,16.92,9.37,7.72,-2.07,0.74,3.34,
6.445,16.92,9.37,7.72,-1.92,0.43,3.34,
6.446,16.92,9.37,7.72,-1.72,0.17,3.26,
6.446,18.88,9.48,8.23,-1.72,0.17,3.26,
6.446,20.35,10.00,8.75,-1.72,0.17,3.26,
6.447,20.35,10.00,8.75,-1.49,-0.06,3.09,
6.447,20.35,10.00,8.75,-1.23,-0.26,2.88,
6.448,21.64,10.59,9.17,-1.23,-0.26,2.88,
6.448,21.64,10.59,9.17,-0.95,-0.44,2.63,
6.449,22.59,11.18,9.56,-0.95,-0.44,2.63,
6.449,22.59,11.18,9.56,-0.65,-0.60,2.34,
6.45,23.18,11.73,9.98,-0.65,-0.60,2.34,
6.45,23.18,11.73,9.98,-0.34,-0.76,2.05,
6.45,23.61,12.17,10.34,-0.34,-0.76,2.05,
6.451,23.82,12.46,10.55,-0.34,-0.76,2.05,
6.451,23.82,12.46,10.55,-0.02,-0.91,1.76,
6.452,24.08,12.65,10.54,-0.02,-0.91,1.76,
6.453,24.08,12.65,10.54,0.30,-1.03,1.50,
6.454,24.35,12.69,10.36,0.30,-1.03,1.50,
6.455,24.35,12.69,10.36,0.62,-1.12,1.25,
6.456,24.35,12.69,10.36,0.93,-1.17,1.01,
6.456,24.71,12.72,10.15,0.93,-1.17,1.01,
6.479,24.98,12.59,9.88,0.93,-1.17,1.01,
6.48,24.98,12.59,9.88,1.23,-1.23,0.75,
6.481,24.98,12.59,9.88,1.51,-1.33,0.48,
6.481,25.18,12.26,9.37,1.51,-1.33,0.48,
6.482,25.41,11.82,8.61,1.51,-1.33,0.48,
6.482,25.41,11.82,8.61,1.75,-1.46,0.18,
6.482,25.41,11.82,8.61,1.96,-1.62,-0.12,
6.483,25.65,11.24,7.73,1.96,-1.62,-0.12,
6.483,25.83,10.47,6.82,1.96,-1.62,-0.12,
6.484,25.83,10.47,6.82,2.12,-1.80,-0.43,
6.513,25.85,9.62,5.82,2.12,-1.80,-0.43,
6.514,25.85,9.62,5.82,2.23,-1.97,-0.73,
6.514,25.77,8.75,4.79,2.23,-1.97,-0.73,
6.515,25.77,8.75,4.79,2.29,-2.12,-1.02,
6.515,25.77,8.75,4.79,2.30,-2.25,-1.27,
6.516,25.76,8.08,3.70,2.30,-2.25,-1.27,
6.516,25.76,8.08,3.70,2.25,-2.38,-1.51,
6.517,25.93,7.43,2.60,2.25,-2.38,-1.51,
6.517,25.93,7.43,2.60,2.11,-2.49,-1.76,
6.518,26.17,6.79,1.49,2.11,-2.49,-1.76,
6.519,26.35,6.09,0.53,2.11,-2.49,-1.76,
6.519,26.35,6.09,0.53,1.88,-2.58,-2.02,
6.519,26.35,6.09,0.53,1.57,-2.63,-2.30,
6.52,26.41,5.38,-0.18,1.57,-2.63,-2.30,
6.521,26.41,5.38,-0.18,1.20,-2.62,-2.59,
6.521,26.45,4.69,-0.50,1.20,-2.62,-2.59,
6.522,26.47,4.03,-0.26,1.20,-2.62,-2.59,
6.522,26.47,4.03,-0.26,0.79,-2.54,-2.88,
6.527,26.47,4.03,-0.26,0.37,-2.39,-3.18,
6.528,26.44,3.27,0.58,0.37,-2.39,-3.18,
6.532,26.36,2.33,1.93,0.37,-2.39,-3.18,
6.533,26.36,2.33,1.93,-0.02,-2.21,-3.50,
6.543,26.18,1.25,3.50,-0.02,-2.21,-3.50,
6.544,26.18,1.25,3.50,-0.35,-2.01,-3.82,
6.545,25.99,-0.08,4.94,-0.35,-2.01,-3.82,
6.545,25.99,-0.08,4.94,-0.61,-1.82,-4.15,
6.546,25.66,-1.59,6.14,-0.61,-1.82,-4.15,
6.547,25.66,-1.59,6.14,-0.80,-1.61,-4.48,
6.551,25.66,-1.59,6.14,-0.91,-1.36,-4.80,
6.551,25.12,-3.25,7.15,-0.91,-1.36,-4.80,
6.578,24.36,-4.86,8.03,-0.91,-1.36,-4.80,
6.579,24.36,-4.86,8.03,-0.96,-1.07,-5.10,
6.579,24.36,-4.86,8.03,-0.95,-0.73,-5.37,
6.58,23.36,-6.27,8.82,-0.95,-0.73,-5.37,
6.58,23.36,-6.27,8.82,-0.89,-0.40,-5.62,
6.581,22.14,-7.50,9.38,-0.89,-0.40,-5.62,
6.581,22.14,-7.50,9.38,-0.78,-0.10,-5.83,
6.582,20.88,-8.60,9.87,-0.78,-0.10,-5.83,
6.582,20.88,-8.60,9.87,-0.63,0.14,-6.01,
6.583,19.63,-9.58,10.34,-0.63,0.14,-6.01,
6.583,18.50,-10.54,10.70,-0.63,0.14,-6.01,
6.583,18.50,-10.54,10.70,-0.45,0.32,-6.15,
6.585,18.50,-10.54,10.70,-0.22,0.42,-6.25,
6.586,17.63,-11.46,10.99,-0.22,0.42,-6.25,
6.597,17.63,-11.46,10.99,0.05,0.45,-6.34,
6.598,17.11,-12.33,11.19,0.05,0.45,-6.34,
6.599,17.11,-12.33,11.19,0.34,0.40,-6.41,
6.6,16.84,-13.10,11.16,0.34,0.40,-6.41,
6.6,16.84,-13.10,11.16,0.65,0.30,-6.48,
6.601,16.79,-13.82,10.89,0.65,0.30,-6.48,
6.613,16.79,-13.82,10.89,0.96,0.15,-6.55,
6.615,16.82,-14.59,10.47,0.96,0.15,-6.55,
6.616,16.94,-15.38,9.99,0.96,0.15,-6.55,
6.617,16.94,-15.38,9.99,1.24,-0.01,-6.65,
6.617,16.94,-15.38,9.99,1.52,-0.20,-6.76,
6.618,17.08,-16.15,9.26,1.52,-0.20,-6.76,
6.62,17.29,-16.93,8.49,1.52,-0.20,-6.76,
6.621,17.29,-16.93,8.49,1.75,-0.40,-6.88,
6.651,17.61,-17.84,7.61,1.75,-0.40,-6.88,
6.652,17.61,-17.84,7.61,1.94,-0.60,-7.02,
6.653,17.61,-17.84,7.61,2.08,-0.78,-7.18,
6.653,18.01,-18.83,6.66,2.08,-0.78,-7.18,
6.654,18.01,-18.83,6.66,2.16,-0.96,-7.33,
6.654,18.47,-19.91,5.77,2.16,-0.96,-7.33,
6.655,18.95,-21.02,4.89,2.16,-0.96,-7.33,
6.656,18.95,-21.02,4.89,2.18,-1.11,-7.50,
6.656,19.51,-22.19,4.04,2.18,-1.11,-7.50,
6.657,19.51,-22.19,4.04,2.15,-1.23,-7.66,
6.657,20.16,-23.41,3.17,2.15,-1.23,-7.66,
6.658,20.16,-23.41,3.17,2.06,-1.31,-7.81,
6.658,20.16,-23.41,3.17,1.93,-1.33,-7.96,
6.659,20.83,-24.58,2.36,1.93,-1.33,-7.96,
6.659,21.40,-25.73,1.69,1.93,-1.33,-7.96,
6.66,21.40,-25.73,1.69,1.74,-1.30,-8.10,
6.664,21.72,-26.88,1.05,1.74,-1.30,-8.10,
6.665,21.72,-26.88,1.05,1.52,-1.20,-8.24,
6.668,21.82,-27.79,0.49,1.52,-1.20,-8.24,
6.669,21.82,-27.79,0.49,1.28,-1.04,-8.36,
6.673,21.84,-28.63,-0.00,1.28,-1.04,-8.36,
6.675,21.84,-28.63,-0.00,1.02,-0.83,-8.47,
6.678,21.84,-28.63,-0.00,0.77,-0.49,-8.58,
6.679,21.83,-29.78,-0.27,0.77,-0.49,-8.58,
6.683,21.72,-31.20,-0.11,0.77,-0.49,-8.58,
6.684,21.72,-31.20,-0.11,0.54,-0.10,-8.70,
6.688,21.72,-31.20,-0.11,0.35,0.22,-8.85,
6.69,21.28,-32.40,0.37,0.35,0.22,-8.85,
6.693,19.89,-32.68,1.06,0.35,0.22,-8.85,
6.694,19.89,-32.68,1.06,0.26,0.57,-9.05,
6.697,16.79,-32.98,2.68,0.26,0.57,-9.05,
6.698,16.79,-32.98,2.68,0.26,0.74,-9.29,
6.702,13.38,-32.62,4.45,0.26,0.74,-9.29,
6.703,13.38,-32.62,4.45,0.31,0.48,-9.38,
6.708,13.38,-32.62,4.45,0.39,-0.29,-9.17,
6.709,11.19,-29.32,5.83,0.39,-0.29,-9.17,
6.713,11.19,-29.32,5.83,0.54,-0.78,-8.82,
6.713,9.69,-27.82,4.21,0.54,-0.78,-8.82,
6.717,9.69,-27.82,4.21,0.69,-0.55,-8.45,
6.718,10.48,-28.89,1.69,0.69,-0.55,-8.45,
6.734,12.86,-30.65,-0.63,0.69,-0.55,-8.45,
6.736,12.86,-30.65,-0.63,0.72,0.11,-8.17,
6.782,12.86,-30.65,-0.63,0.61,0.72,-8.01,
6.782,13.97,-31.71,-1.90,0.61,0.72,-8.01,
6.783,13.97,-31.71,-1.90,0.39,1.08,-7.91,
6.783,13.18,-30.84,-2.00,0.39,1.08,-7.91,
6.784,13.18,-30.84,-2.00,0.16,1.19,-7.77,
6.785,12.27,-29.00,-0.91,0.16,1.19,-7.77,
6.785,11.91,-27.54,0.28,0.16,1.19,-7.77,
6.786,11.91,-27.54,0.28,-0.03,1.16,-7.60,
6.786,11.91,-27.54,0.28,-0.13,1.25,-7.45,
6.787,12.20,-27.09,1.01,-0.13,1.25,-7.45,
6.788,12.20,-27.09,1.01,-0.12,1.57,-7.36,
6.788,12.46,-27.42,1.40,-0.12,1.57,-7.36,
6.789,12.46,-27.42,1.40,-0.05,2.02,-7.31,
6.79,11.98,-28.02,1.65,-0.05,2.02,-7.31,
6.79,11.98,-28.02,1.65,0.07,2.45,-7.26,
6.791,10.74,-28.29,2.11,0.07,2.45,-7.26,
6.792,9.13,-27.91,2.63,0.07,2.45,-7.26,
6.792,9.13,-27.91,2.63,0.23,2.81,-7.20,
6.793,7.58,-27.09,2.98,0.23,2.81,-7.20,
6.794,7.58,-27.09,2.98,0.44,3.04,-7.12,
6.794,7.58,-27.09,2.98,0.70,3.12,-7.02,
6.794,6.25,-26.13,3.20,0.70,3.12,-7.02,
6.795,6.25,-26.13,3.20,0.99,3.08,-6.90,
6.795,5.25,-25.31,3.27,0.99,3.08,-6.90,
6.796,5.25,-25.31,3.27,1.30,2.96,-6.77,
6.796,4.44,-24.69,2.93,1.30,2.96,-6.77,
6.797,4.44,-24.69,2.93,1.61,2.82,-6.62,
6.797,3.85,-24.33,2.22,1.61,2.82,-6.62,
6.798,3.85,-24.33,2.22,1.88,2.70,-6.46,
6.798,3.49,-24.09,1.35,1.88,2.70,-6.46,
6.807,3.49,-24.09,1.35,2.10,2.60,-6.30,
6.808,3.27,-23.80,0.47,2.10,2.60,-6.30,
6.808,3.27,-23.80,0.47,2.25,2.52,-6.15,
6.808,3.00,-23.41,-0.26,2.25,2.52,-6.15,
6.847,3.00,-23.41,-0.26,2.36,2.46,-6.02,
6.848,2.71,-23.01,-0.87,2.36,2.46,-6.02,
6.848,2.71,-23.01,-0.87,2.42,2.40,-5.89,
6.849,2.42,-22.58,-1.31,2.42,2.40,-5.89,
6.849,2.42,-22.58,-1.31,2.46,2.32,-5.77,
6.849,2.15,-22.26,-1.62,2.46,2.32,-5.77,
6.85,2.15,-22.26,-1.62,2.48,2.25,-5.66,
6.85,1.90,-22.03,-1.84,2.48,2.25,-5.66,
6.85,1.90,-22.03,-1.84,2.48,2.17,-5.55,
6.851,1.67,-21.82,-1.97,2.48,2.17,-5.55,
6.851,1.46,-21.57,-2.04,2.48,2.17,-5.55,
6.852,1.46,-21.57,-2.04,2.48,2.10,-5.45,
6.852,1.46,-21.57,-2.04,2.47,2.01,-5.35,
6.852,1.19,-21.35,-2.07,2.47,2.01,-5.35,
6.853,0.96,-21.11,-2.05,2.47,2.01,-5.35,
6.853,0.96,-21.11,-2.05,2.46,1.91,-5.26,
6.854,0.81,-20.98,-2.08,2.46,1.91,-5.26,
6.854,0.81,-20.98,-2.08,2.45,1.78,-5.18,
6.855,0.55,-20.89,-2.05,2.45,1.78,-5.18,
6.855,0.55,-20.89,-2.05,2.44,1.64,-5.09,
6.863,0.55,-20.89,-2.05,2.42,1.48,-5.01,
6.864,0.32,-20.71,-1.98,2.42,1.48,-5.01,
6.865,0.01,-20.54,-1.83,2.42,1.48,-5.01,
6.865,0.01,-20.54,-1.83,2.40,1.32,-4.93,
6.868,-0.33,-20.27,-1.63,2.40,1.32,-4.93,
6.869,-0.33,-20.27,-1.63,2.39,1.16,-4.84,
6.9,-0.33,-20.27,-1.63,2.38,0.99,-4.75,
6.901,-0.62,-20.04,-1.37,2.38,0.99,-4.75,
6.901,-0.62,-20.04,-1.37,2.38,0.83,-4.67,
6.902,-0.97,-19.79,-1.04,2.38,0.83,-4.67,
6.902,-0.97,-19.79,-1.04,2.39,0.67,-4.58,
6.903,-1.35,-19.59,-0.61,2.39,0.67,-4.58,
6.903,-1.35,-19.59,-0.61,2.41,0.51,-4.49,
6.903,-1.72,-19.38,-0.23,2.41,0.51,-4.49,
6.905,-1.72,-19.38,-0.23,2.46,0.34,-4.40,
6.906,-2.03,-19.21,0.07,2.46,0.34,-4.40,
6.906,-2.03,-19.21,0.07,2.52,0.17,-4.30,
6.907,-2.25,-19.07,0.27,2.52,0.17,-4.30,
6.907,-2.25,-19.07,0.27,2.59,-0.01,-4.21,
6.908,-2.40,-19.04,0.37,2.59,-0.01,-4.21,
6.908,-2.40,-19.04,0.37,2.66,-0.20,-4.12,
6.908,-2.46,-19.03,0.38,2.66,-0.20,-4.12,
6.912,-2.47,-19.13,0.42,2.66,-0.20,-4.12,
6.913,-2.47,-19.13,0.42,2.72,-0.38,-4.04,
6.917,-2.49,-19.22,0.38,2.72,-0.38,-4.04,
6.918,-2.49,-19.22,0.38,2.78,-0.54,-3.96,
6.929,-2.49,-19.22,0.38,2.82,-0.69,-3.89,
6.93,-2.54,-19.32,0.29,2.82,-0.69,-3.89,
6.931,-2.54,-19.32,0.29,2.86,-0.80,-3.82,
6.931,-2.63,-19.35,0.28,2.86,-0.80,-3.82,
6.932,-2.63,-19.35,0.28,2.88,-0.90,-3.75,
6.932,-2.79,-19.31,0.33,2.88,-0.90,-3.75,
6.936,-3.01,-19.23,0.38,2.88,-0.90,-3.75,
6.937,-3.01,-19.23,0.38,2.89,-0.98,-3.69,
6.966,-3.01,-19.23,0.38,2.90,-1.04,-3.64,
6.967,-3.29,-19.03,0.43,2.90,-1.04,-3.64,
6.968,-3.29,-19.03,0.43,2.91,-1.08,-3.58,
6.968,-3.68,-18.87,0.51,2.91,-1.08,-3.58,
6.969,-3.68,-18.87,0.51,2.91,-1.11,-3.52,
6.969,-4.07,-18.71,0.66,2.91,-1.11,-3.52,
6.97,-4.47,-18.52,0.79,2.91,-1.11,-3.52,
6.97,-4.47,-18.52,0.79,2.92,-1.13,-3.47,
6.971,-4.47,-18.52,0.79,2.93,-1.13,-3.41,
6.971,-4.87,-18.36,0.82,2.93,-1.13,-3.41,
6.972,-5.24,-18.26,0.76,2.93,-1.13,-3.41,
6.972,-5.24,-18.26,0.76,2.94,-1.12,-3.35,
7.013,-5.63,-18.17,0.60,2.94,-1.12,-3.35,
7.013,-5.63,-18.17,0.60,2.95,-1.10,-3.31,
7.014,-6.09,-18.15,0.29,2.95,-1.10,-3.31,
7.015,-6.09,-18.15,0.29,2.95,-1.07,-3.26,
7.016,-6.56,-18.26,-0.08,2.95,-1.07,-3.26,
7.016,-6.56,-18.26,-0.08,2.94,-1.03,-3.21,
7.017,-7.00,-18.37,-0.48,2.94,-1.03,-3.21,
7.017,-7.00,-18.37,-0.48,2.91,-0.99,-3.16,
7.018,-7.00,-18.37,-0.48,2.85,-0.94,-3.09,
7.019,-7.56,-18.60,-0.93,2.85,-0.94,-3.09,
7.019,-8.14,-18.86,-1.47,2.85,-0.94,-3.09,
7.02,-8.14,-18.86,-1.47,2.78,-0.89,-3.00,
7.02,-8.74,-19.19,-1.92,2.78,-0.89,-3.00,
7.021,-8.74,-19.19,-1.92,2.69,-0.84,-2.89,
7.021,-8.74,-19.19,-1.92,2.56,-0.78,-2.73,
7.022,-9.34,-19.52,-2.51,2.56,-0.78,-2.73,
7.022,-9.90,-19.84,-3.04,2.56,-0.78,-2.73,
7.023,-9.90,-19.84,-3.04,2.42,-0.73,-2.54,
7.023,-10.54,-20.06,-3.57,2.42,-0.73,-2.54,
7.024,-10.54,-20.06,-3.57,2.25,-0.69,-2.30,
7.024,-11.24,-20.16,-4.05,2.25,-0.69,-2.30,
7.025,-11.24,-20.16,-4.05,2.05,-0.65,-2.02,
7.026,-12.01,-20.11,-4.51,2.05,-0.65,-2.02,
7.026,-12.01,-20.11,-4.51,1.82,-0.60,-1.71,
7.039,-12.79,-19.91,-4.90,1.82,-0.60,-1.71,
7.039,-12.79,-19.91,-4.90,1.57,-0.55,-1.35,
7.04,-13.49,-19.71,-5.21,1.57,-0.55,-1.35,
7.041,-13.49,-19.71,-5.21,1.29,-0.51,-0.96,
7.041,-13.49,-19.71,-5.21,0.99,-0.48,-0.53,
7.042,-14.02,-19.45,-5.34,0.99,-0.48,-0.53,
7.076,-14.02,-19.45,-5.34,0.68,-0.46,-0.09,
7.076,-14.33,-19.19,-5.33,0.68,-0.46,-0.09,
7.077,-14.33,-19.19,-5.33,0.36,-0.43,0.36,
7.077,-14.41,-18.86,-5.13,0.36,-0.43,0.36,
7.078,-14.41,-18.86,-5.13,0.04,-0.39,0.80,
7.078,-14.35,-18.56,-4.84,0.04,-0.39,0.80,
7.079,-14.35,-18.56,-4.84,-0.26,-0.36,1.22,
7.079,-14.08,-18.29,-4.48,-0.26,-0.36,1.22,
7.079,-14.08,-18.29,-4.48,-0.55,-0.32,1.62,
7.08,-13.74,-18.02,-4.10,-0.55,-0.32,1.62,
7.081,-13.24,-17.76,-3.69,-0.55,-0.32,1.62,
7.081,-13.24,-17.76,-3.69,-0.83,-0.30,2.00,
7.082,-13.24,-17.76,-3.69,-1.09,-0.28,2.35,
7.082,-12.59,-17.59,-3.26,-1.09,-0.28,2.35,
7.082,-11.82,-17.49,-2.76,-1.09,-0.28,2.35,
7.083,-11.82,-17.49,-2.76,-1.34,-0.27,2.68,
7.083,-10.93,-17.50,-2.25,-1.34,-0.27,2.68,
7.084,-10.93,-17.50,-2.25,-1.56,-0.25,2.99,
7.088,-10.93,-17.50,-2.25,-1.77,-0.22,3.27,
7.089,-10.10,-17.50,-1.73,-1.77,-0.22,3.27,
7.096,-10.10,-17.50,-1.73,-1.95,-0.19,3.52,
7.097,-9.28,-17.56,-1.19,-1.95,-0.19,3.52,
7.098,-9.28,-17.56,-1.19,-2.12,-0.16,3.75,
7.099,-8.53,-17.56,-0.72,-2.12,-0.16,3.75,
7.102,-7.87,-17.54,-0.15,-2.12,-0.16,3.75,
7.103,-7.87,-17.54,-0.15,-2.26,-0.15,3.97,
7.126,-7.87,-17.54,-0.15,-2.37,-0.14,4.16,
7.127,-7.24,-17.53,0.39,-2.37,-0.14,4.16,
