
time,ax,ay,az,wx,wy,wz,
0.002,2.92,-4.22,-7.22,-0.15,-3.30,0.63,
0.003,2.92,-4.22,-7.22,-0.20,-3.55,0.68,
0.004,2.92,-4.22,-7.22,-0.23,-3.85,0.72,
0.004,2.71,-4.74,-7.28,-0.23,-3.85,0.72,
0.038,2.71,-4.74,-7.28,-0.25,-4.13,0.74,
0.039,2.62,-5.23,-7.46,-0.25,-4.13,0.74,
0.039,2.62,-5.23,-7.46,-0.26,-4.35,0.76,
0.039,2.36,-5.53,-7.33,-0.26,-4.35,0.76,
0.04,2.12,-5.75,-7.13,-0.26,-4.35,0.76,
0.04,2.12,-5.75,-7.13,-0.27,-4.53,0.78,
0.04,2.12,-5.75,-7.13,-0.28,-4.72,0.82,
0.041,1.98,-6.01,-6.83,-0.28,-4.72,0.82,
0.042,1.75,-6.39,-6.56,-0.28,-4.72,0.82,
0.042,1.75,-6.39,-6.56,-0.28,-4.93,0.88,
0.042,1.75,-6.39,-6.56,-0.27,-5.18,0.95,
0.043,1.48,-6.71,-6.18,-0.27,-5.18,0.95,
0.043,1.48,-6.71,-6.18,-0.25,-5.41,1.01,
0.044,1.15,-6.94,-5.90,-0.25,-5.41,1.01,
0.044,1.15,-6.94,-5.90,-0.22,-5.61,1.07,
0.044,0.66,-7.21,-5.68,-0.22,-5.61,1.07,
0.047,0.66,-7.21,-5.68,-0.19,-5.77,1.14,
0.048,0.20,-7.35,-5.56,-0.19,-5.77,1.14,
0.056,-0.30,-7.65,-5.51,-0.19,-5.77,1.14,
0.057,-0.30,-7.65,-5.51,-0.18,-5.92,1.23,
0.057,-0.74,-8.08,-5.58,-0.18,-5.92,1.23,
0.058,-0.74,-8.08,-5.58,-0.19,-6.03,1.33,
0.06,-0.69,-8.70,-5.89,-0.19,-6.03,1.33,
0.06,-0.69,-8.70,-5.89,-0.22,-6.08,1.44,
0.074,-0.69,-8.70,-5.89,-0.28,-6.09,1.56,
0.075,-1.10,-9.19,-6.28,-0.28,-6.09,1.56,
0.076,-1.10,-9.19,-6.28,-0.39,-6.04,1.67,
0.076,-1.82,-9.48,-6.36,-0.39,-6.04,1.67,
0.077,-1.82,-9.48,-6.36,-0.51,-5.95,1.78,
0.077,-2.62,-9.73,-6.48,-0.51,-5.95,1.78,
0.08,-3.26,-9.99,-6.73,-0.51,-5.95,1.78,
0.081,-3.26,-9.99,-6.73,-0.63,-5.85,1.92,
0.092,-3.26,-9.99,-6.73,-0.78,-5.75,2.07,
0.093,-3.91,-10.33,-6.93,-0.78,-5.75,2.07,
0.094,-4.60,-10.70,-6.96,-0.78,-5.75,2.07,
0.094,-4.60,-10.70,-6.96,-0.94,-5.69,2.24,
0.095,-4.60,-10.70,-6.96,-1.11,-5.68,2.42,
0.095,-5.34,-11.05,-6.90,-1.11,-5.68,2.42,
0.143,-6.07,-11.40,-6.61,-1.11,-5.68,2.42,
0.144,-6.07,-11.40,-6.61,-1.28,-5.72,2.60,
0.144,-6.64,-11.71,-6.32,-1.28,-5.72,2.60,
0.145,-6.64,-11.71,-6.32,-1.44,-5.79,2.79,
0.145,-6.64,-11.71,-6.32,-1.60,-5.86,2.99,
0.146,-7.19,-12.11,-5.92,-1.60,-5.86,2.99,
0.146,-7.19,-12.11,-5.92,-1.76,-5.93,3.21,
0.147,-7.43,-12.57,-5.42,-1.76,-5.93,3.21,
0.147,-7.43,-12.57,-5.42,-1.92,-6.00,3.45,
0.148,-7.08,-13.10,-4.92,-1.92,-6.00,3.45,
0.148,-6.11,-13.60,-4.31,-1.92,-6.00,3.45,
0.149,-6.11,-13.60,-4.31,-2.10,-6.05,3.69,
0.149,-6.11,-13.60,-4.31,-2.29,-6.08,3.91,
0.15,-4.78,-14.07,-3.33,-2.29,-6.08,3.91,
0.15,-4.78,-14.07,-3.33,-2.46,-6.07,4.09,
0.151,-3.60,-14.53,-1.95,-2.46,-6.07,4.09,
0.151,-2.66,-14.92,-0.42,-2.46,-6.07,4.09,
0.152,-2.66,-14.92,-0.42,-2.62,-6.00,4.25,
0.152,-2.11,-15.22,1.06,-2.62,-6.00,4.25,
0.153,-2.11,-15.22,1.06,-2.74,-5.90,4.38,
0.153,-2.11,-15.22,1.06,-2.83,-5.75,4.50,
0.154,-1.57,-15.22,2.61,-2.83,-5.75,4.50,
0.154,-1.57,-15.22,2.61,-2.90,-5.56,4.62,
0.155,-0.64,-14.91,4.33,-2.90,-5.56,4.62,
0.158,-0.64,-14.91,4.33,-2.94,-5.31,4.74,
0.159,0.63,-14.48,6.06,-2.94,-5.31,4.74,
0.163,1.85,-14.18,7.34,-2.94,-5.31,4.74,
0.163,1.85,-14.18,7.34,-2.96,-5.01,4.81,
0.168,1.85,-14.18,7.34,-2.96,-4.63,4.87,
0.168,2.95,-13.99,8.24,-2.96,-4.63,4.87,
0.173,3.81,-13.94,8.68,-2.96,-4.63,4.87,
0.174,3.81,-13.94,8.68,-2.97,-4.11,4.89,
0.177,4.30,-13.78,8.82,-2.97,-4.11,4.89,
0.178,4.30,-13.78,8.82,-3.01,-3.47,4.87,
0.191,4.40,-13.61,8.78,-3.01,-3.47,4.87,
0.192,4.40,-13.61,8.78,-3.10,-2.77,4.83,
0.192,4.00,-13.57,8.66,-3.10,-2.77,4.83,
0.193,4.00,-13.57,8.66,-3.23,-2.09,4.80,
0.193,3.34,-13.62,8.59,-3.23,-2.09,4.80,
0.193,3.34,-13.62,8.59,-3.41,-1.45,4.79,
0.197,2.62,-13.82,8.57,-3.41,-1.45,4.79,
0.197,2.62,-13.82,8.57,-3.61,-0.88,4.84,
0.201,2.62,-13.82,8.57,-3.82,-0.39,4.94,
0.202,2.16,-14.19,8.63,-3.82,-0.39,4.94,
0.206,2.16,-14.19,8.63,-4.02,-0.03,5.08,
0.207,1.88,-14.59,8.78,-4.02,-0.03,5.08,
0.211,1.88,-14.59,8.78,-4.18,0.18,5.25,
0.212,1.76,-15.06,9.27,-4.18,0.18,5.25,
0.239,1.76,-15.06,9.27,-4.30,0.24,5.44,
0.239,1.82,-15.56,10.24,-4.30,0.24,5.44,
0.24,2.17,-16.03,11.71,-4.30,0.24,5.44,
0.241,2.17,-16.03,11.71,-4.32,0.13,5.66,
0.242,2.66,-16.51,13.34,-4.32,0.13,5.66,
0.242,2.66,-16.51,13.34,-4.23,-0.14,5.91,
0.243,3.08,-16.97,14.63,-4.23,-0.14,5.91,
0.244,3.08,-16.97,14.63,-4.02,-0.54,6.20,
0.245,3.56,-17.26,15.58,-4.02,-0.54,6.20,
0.245,3.56,-17.26,15.58,-3.74,-1.05,6.57,
0.246,4.86,-17.25,16.18,-3.74,-1.05,6.57,
0.246,4.86,-17.25,16.18,-3.39,-1.53,7.01,
0.247,7.09,-17.10,16.58,-3.39,-1.53,7.01,
0.248,7.09,-17.10,16.58,-3.02,-1.86,7.41,
0.251,7.09,-17.10,16.58,-2.65,-2.02,7.73,
0.252,9.65,-16.83,16.65,-2.65,-2.02,7.73,
0.255,9.65,-16.83,16.65,-2.32,-2.08,7.95,
0.256,12.08,-16.36,16.48,-2.32,-2.08,7.95,
0.26,14.30,-15.83,16.26,-2.32,-2.08,7.95,
0.261,14.30,-15.83,16.26,-2.05,-2.04,8.12,
0.266,14.30,-15.83,16.26,-1.86,-1.84,8.23,
0.267,16.44,-15.18,15.89,-1.86,-1.84,8.23,
0.305,16.44,-15.18,15.89,-1.74,-1.46,8.27,
0.305,18.30,-14.43,15.41,-1.74,-1.46,8.27,
0.306,18.30,-14.43,15.41,-1.70,-0.92,8.25,
0.307,20.00,-13.53,14.91,-1.70,-0.92,8.25,
0.307,20.00,-13.53,14.91,-1.73,-0.28,8.15,
0.308,21.34,-12.44,14.45,-1.73,-0.28,8.15,
0.308,21.34,-12.44,14.45,-1.81,0.38,7.99,
0.309,22.19,-11.29,14.21,-1.81,0.38,7.99,
0.309,22.71,-10.03,14.22,-1.81,0.38,7.99,
0.31,22.71,-10.03,14.22,-1.91,1.01,7.77,
0.31,22.71,-10.03,14.22,-2.00,1.57,7.52,
0.311,22.94,-8.70,14.34,-2.00,1.57,7.52,
0.311,22.94,-8.70,14.34,-2.05,2.02,7.24,
0.312,22.77,-7.29,14.28,-2.05,2.02,7.24,
0.312,22.77,-7.29,14.28,-2.06,2.38,6.95,
0.313,22.27,-6.12,13.88,-2.06,2.38,6.95,
0.313,22.27,-6.12,13.88,-2.05,2.65,6.65,
0.314,21.40,-5.07,13.11,-2.05,2.65,6.65,
0.314,21.40,-5.07,13.11,-2.02,2.84,6.37,
0.315,20.33,-4.27,12.29,-2.02,2.84,6.37,
0.326,20.33,-4.27,12.29,-1.99,2.94,6.13,
0.326,19.28,-3.53,11.43,-1.99,2.94,6.13,
0.327,18.38,-2.85,10.71,-1.99,2.94,6.13,
0.327,18.38,-2.85,10.71,-1.97,2.97,5.93,
0.359,17.57,-2.16,10.17,-1.97,2.97,5.93,
0.36,17.57,-2.16,10.17,-1.94,2.95,5.78,
0.361,17.57,-2.16,10.17,-1.89,2.89,5.66,
0.361,16.95,-1.53,10.00,-1.89,2.89,5.66,
0.362,16.95,-1.53,10.00,-1.80,2.78,5.58,
0.362,16.61,-1.05,10.22,-1.80,2.78,5.58,
0.362,16.53,-0.57,10.82,-1.80,2.78,5.58,
0.363,16.53,-0.57,10.82,-1.65,2.61,5.54,
0.363,16.74,0.06,11.44,-1.65,2.61,5.54,
0.364,16.74,0.06,11.44,-1.43,2.40,5.51,
0.364,17.35,0.93,11.81,-1.43,2.40,5.51,
0.364,17.35,0.93,11.81,-1.15,2.17,5.48,
0.365,17.35,0.93,11.81,-0.82,1.93,5.43,
0.365,18.26,1.96,11.61,-0.82,1.93,5.43,
0.366,18.98,2.91,10.93,-0.82,1.93,5.43,
0.366,18.98,2.91,10.93,-0.50,1.72,5.33,
0.374,18.98,2.91,10.93,-0.21,1.54,5.17,
0.375,19.35,3.72,9.95,-0.21,1.54,5.17,
0.375,19.43,4.33,8.94,-0.21,1.54,5.17,
0.375,19.43,4.33,8.94,-0.00,1.40,4.97,
0.377,19.43,4.33,8.94,0.13,1.32,4.76,
0.377,19.41,4.85,8.04,0.13,1.32,4.76,
0.406,19.41,4.85,8.04,0.20,1.29,4.55,
0.407,19.51,5.42,7.38,0.20,1.29,4.55,
0.407,19.75,6.00,7.08,0.20,1.29,4.55,
0.408,19.75,6.00,7.08,0.21,1.34,4.34,
0.408,20.10,6.71,7.02,0.21,1.34,4.34,
0.408,20.10,6.71,7.02,0.20,1.43,4.12,
0.408,20.10,6.71,7.02,0.19,1.54,3.89,
0.409,20.48,7.46,7.08,0.19,1.54,3.89,
0.409,20.48,7.46,7.08,0.19,1.66,3.63,
0.409,20.92,8.11,7.15,0.19,1.66,3.63,
0.41,21.41,8.71,7.20,0.19,1.66,3.63,
0.41,21.41,8.71,7.20,0.20,1.79,3.35,
0.413,21.41,8.71,7.20,0.24,1.91,3.06,
0.414,22.00,9.33,7.22,0.24,1.91,3.06,
0.423,22.00,9.33,7.22,0.32,2.01,2.76,
0.423,22.50,9.93,7.18,0.32,2.01,2.76,
0.424,22.50,9.93,7.18,0.44,2.06,2.42,
0.424,22.72,10.47,6.87,0.44,2.06,2.42,
0.426,22.72,10.47,6.87,0.58,2.07,2.07,
0.426,22.63,10.93,6.28,0.58,2.07,2.07,
0.431,22.28,11.30,5.55,0.58,2.07,2.07,
0.431,22.28,11.30,5.55,0.71,2.03,1.70,
0.469,21.84,11.68,4.69,0.71,2.03,1.70,
0.47,21.84,11.68,4.69,0.84,1.95,1.35,
0.47,21.84,11.68,4.69,0.94,1.86,1.00,
0.471,21.33,11.98,3.79,0.94,1.86,1.00,
0.471,21.33,11.98,3.79,1.02,1.76,0.67,
0.471,20.76,12.18,2.85,1.02,1.76,0.67,
0.472,20.07,12.34,1.96,1.02,1.76,0.67,
0.472,20.07,12.34,1.96,1.06,1.63,0.36,
0.473,19.26,12.36,1.25,1.06,1.63,0.36,
0.473,19.26,12.36,1.25,1.08,1.48,0.06,
0.473,19.26,12.36,1.25,1.06,1.33,-0.22,
0.474,18.36,12.28,0.78,1.06,1.33,-0.22,
0.474,17.43,12.16,0.53,1.06,1.33,-0.22,
0.475,17.43,12.16,0.53,1.03,1.17,-0.48,
0.475,17.43,12.16,0.53,0.99,1.00,-0.71,
0.475,16.58,11.99,0.40,0.99,1.00,-0.71,
0.476,15.79,11.77,0.43,0.99,1.00,-0.71,
0.476,15.79,11.77,0.43,0.95,0.83,-0.92,
0.48,15.01,11.48,0.38,0.95,0.83,-0.92,
0.48,15.01,11.48,0.38,0.92,0.65,-1.10,
0.49,15.01,11.48,0.38,0.89,0.48,-1.26,
0.491,14.30,11.12,0.40,0.89,0.48,-1.26,
0.491,14.30,11.12,0.40,0.87,0.31,-1.39,
0.492,13.65,10.68,0.44,0.87,0.31,-1.39,
0.494,13.65,10.68,0.44,0.84,0.16,-1.50,
0.495,13.24,10.27,0.48,0.84,0.16,-1.50,
0.507,12.88,9.77,0.60,0.84,0.16,-1.50,
0.508,12.88,9.77,0.60,0.82,0.01,-1.61,
0.508,12.88,9.77,0.60,0.80,-0.14,-1.71,
0.508,12.62,9.33,0.73,0.80,-0.14,-1.71,
0.509,12.62,9.33,0.73,0.79,-0.29,-1.81,
0.51,12.32,8.84,0.92,0.79,-0.29,-1.81,
0.555,12.32,8.84,0.92,0.78,-0.44,-1.91,
0.556,12.00,8.35,1.17,0.78,-0.44,-1.91,
0.557,12.00,8.35,1.17,0.78,-0.59,-2.00,
0.557,11.73,7.84,1.47,0.78,-0.59,-2.00,
0.558,11.73,7.84,1.47,0.79,-0.74,-2.10,
0.559,11.52,7.31,1.89,0.79,-0.74,-2.10,
0.559,11.52,7.31,1.89,0.81,-0.87,-2.19,
0.56,11.36,6.74,2.31,0.81,-0.87,-2.19,
0.56,11.16,6.19,2.79,0.81,-0.87,-2.19,
0.561,11.16,6.19,2.79,0.84,-0.99,-2.28,
0.562,10.94,5.62,3.22,0.84,-0.99,-2.28,
0.562,10.94,5.62,3.22,0.88,-1.09,-2.37,
0.563,10.63,5.17,3.57,0.88,-1.09,-2.37,
0.564,10.63,5.17,3.57,0.93,-1.18,-2.46,
0.564,10.63,5.17,3.57,0.99,-1.26,-2.54,
0.565,10.31,4.63,3.80,0.99,-1.26,-2.54,
0.567,10.31,4.63,3.80,1.05,-1.33,-2.61,
0.567,9.94,4.19,3.97,1.05,-1.33,-2.61,
0.568,9.57,3.74,4.14,1.05,-1.33,-2.61,
0.569,9.57,3.74,4.14,1.11,-1.40,-2.67,
0.569,9.57,3.74,4.14,1.17,-1.46,-2.73,
0.57,9.24,3.22,4.21,1.17,-1.46,-2.73,
0.57,9.24,3.22,4.21,1.23,-1.52,-2.77,
0.571,8.96,2.76,4.28,1.23,-1.52,-2.77,
0.581,8.96,2.76,4.28,1.28,-1.58,-2.80,
0.581,8.66,2.28,4.32,1.28,-1.58,-2.80,
0.582,8.66,2.28,4.32,1.32,-1.64,-2.82,
0.583,8.40,1.81,4.41,1.32,-1.64,-2.82,
0.583,8.18,1.42,4.55,1.32,-1.64,-2.82,
0.584,8.18,1.42,4.55,1.34,-1.69,-2.84,
0.587,8.18,1.42,4.55,1.37,-1.74,-2.84,
0.588,7.96,1.06,4.74,1.37,-1.74,-2.84,
0.592,7.96,1.06,4.74,1.39,-1.78,-2.85,
0.592,7.81,0.72,5.00,1.39,-1.78,-2.85,
0.597,7.81,0.72,5.00,1.41,-1.82,-2.85,
0.597,7.69,0.47,5.28,1.41,-1.82,-2.85,
0.619,7.59,0.22,5.52,1.41,-1.82,-2.85,
0.62,7.59,0.22,5.52,1.44,-1.85,-2.84,
0.62,7.59,0.22,5.52,1.46,-1.88,-2.85,
0.62,7.62,-0.06,5.78,1.46,-1.88,-2.85,
0.621,7.62,-0.06,5.78,1.49,-1.90,-2.85,
0.621,7.66,-0.34,6.01,1.49,-1.90,-2.85,
0.621,7.74,-0.67,6.19,1.49,-1.90,-2.85,
0.622,7.74,-0.67,6.19,1.52,-1.91,-2.88,
0.622,7.74,-0.67,6.19,1.54,-1.91,-2.91,
0.622,7.76,-0.99,6.30,1.54,-1.91,-2.91,
0.626,7.76,-0.99,6.30,1.57,-1.91,-2.94,
0.627,7.81,-1.30,6.42,1.57,-1.91,-2.94,
0.631,7.81,-1.30,6.42,1.58,-1.91,-2.97,
0.631,7.81,-1.60,6.55,1.58,-1.91,-2.97,
0.641,7.81,-1.60,6.55,1.60,-1.91,-3.01,
0.641,7.81,-1.93,6.65,1.60,-1.91,-3.01,
0.642,7.88,-2.28,6.69,1.60,-1.91,-3.01,
0.642,7.88,-2.28,6.69,1.61,-1.91,-3.05,
0.646,8.00,-2.63,6.77,1.61,-1.91,-3.05,
0.646,8.00,-2.63,6.77,1.62,-1.91,-3.10,
0.682,8.00,-2.63,6.77,1.64,-1.91,-3.15,
0.683,8.10,-3.01,6.81,1.64,-1.91,-3.15,
0.684,8.16,-3.43,6.78,1.64,-1.91,-3.15,
0.685,8.16,-3.43,6.78,1.64,-1.90,-3.20,
0.686,8.16,-3.43,6.78,1.64,-1.88,-3.25,
0.686,8.09,-3.88,6.84,1.64,-1.88,-3.25,
0.686,8.09,-3.88,6.84,1.64,-1.85,-3.30,
0.686,8.03,-4.32,6.84,1.64,-1.85,-3.30,
0.687,8.03,-4.32,6.84,1.62,-1.82,-3.34,
0.687,7.98,-4.62,6.93,1.62,-1.82,-3.34,
0.687,7.98,-4.62,6.93,1.61,-1.77,-3.39,
0.688,7.90,-4.85,7.01,1.61,-1.77,-3.39,
0.688,7.90,-4.85,7.01,1.59,-1.71,-3.43,
0.688,7.93,-5.12,7.22,1.59,-1.71,-3.43,
0.689,7.94,-5.39,7.40,1.59,-1.71,-3.43,
0.689,7.94,-5.39,7.40,1.58,-1.64,-3.48,
0.689,7.89,-5.70,7.58,1.58,-1.64,-3.48,
0.69,7.89,-5.70,7.58,1.58,-1.57,-3.54,
0.694,7.79,-6.06,7.66,1.58,-1.57,-3.54,
0.695,7.79,-6.06,7.66,1.57,-1.49,-3.59,
0.7,7.75,-6.34,7.69,1.57,-1.49,-3.59,
0.701,7.75,-6.34,7.69,1.57,-1.40,-3.64,
0.704,7.75,-6.34,7.69,1.57,-1.30,-3.70,
0.705,7.68,-6.65,7.66,1.57,-1.30,-3.70,
0.709,7.60,-6.96,7.60,1.57,-1.30,-3.70,
0.709,7.60,-6.96,7.60,1.57,-1.19,-3.76,
0.714,7.54,-7.31,7.47,1.57,-1.19,-3.76,
0.714,7.54,-7.31,7.47,1.57,-1.07,-3.81,
0.719,7.54,-7.70,7.24,1.57,-1.07,-3.81,
0.72,7.54,-7.70,7.24,1.57,-0.95,-3.87,
0.724,7.54,-7.70,7.24,1.56,-0.86,-3.92,
0.725,7.61,-8.14,6.97,1.56,-0.86,-3.92,
0.728,7.61,-8.14,6.97,1.54,-0.77,-3.97,
0.729,7.77,-8.59,6.72,1.54,-0.77,-3.97,
0.742,7.77,-8.59,6.72,1.52,-0.69,-4.02,
0.743,7.92,-9.07,6.53,1.52,-0.69,-4.02,
0.743,8.05,-9.53,6.30,1.52,-0.69,-4.02,
0.743,8.05,-9.53,6.30,1.49,-0.61,-4.07,
0.744,8.05,-9.53,6.30,1.45,-0.52,-4.14,
0.744,8.06,-10.00,6.12,1.45,-0.52,-4.14,
0.748,7.95,-10.46,6.03,1.45,-0.52,-4.14,
0.748,7.95,-10.46,6.03,1.40,-0.42,-4.20,
0.753,7.95,-10.46,6.03,1.36,-0.32,-4.26,
0.754,7.76,-10.76,5.96,1.36,-0.32,-4.26,
0.794,7.76,-10.76,5.96,1.31,-0.21,-4.32,
0.795,7.43,-11.09,5.93,1.31,-0.21,-4.32,
0.796,7.43,-11.09,5.93,1.28,-0.11,-4.38,
0.796,7.07,-11.37,5.90,1.28,-0.11,-4.38,
0.797,7.07,-11.37,5.90,1.26,-0.01,-4.42,
0.797,6.64,-11.70,5.89,1.26,-0.01,-4.42,
0.798,6.14,-12.01,5.91,1.26,-0.01,-4.42,
0.798,6.14,-12.01,5.91,1.25,0.07,-4.46,
0.799,5.64,-12.25,5.92,1.25,0.07,-4.46,
0.799,5.64,-12.25,5.92,1.26,0.13,-4.48,
0.801,5.18,-12.57,5.90,1.26,0.13,-4.48,
0.802,5.18,-12.57,5.90,1.29,0.17,-4.48,
0.803,5.18,-12.57,5.90,1.34,0.17,-4.48,
0.803,4.67,-12.93,5.78,1.34,0.17,-4.48,
0.803,4.67,-12.93,5.78,1.41,0.15,-4.47,
0.804,4.17,-13.23,5.67,1.41,0.15,-4.47,
0.804,3.70,-13.55,5.42,1.41,0.15,-4.47,
0.805,3.70,-13.55,5.42,1.48,0.10,-4.45,
0.805,3.70,-13.55,5.42,1.57,0.00,-4.41,
0.806,3.27,-13.89,5.17,1.57,0.00,-4.41,
0.806,2.91,-14.26,4.94,1.57,0.00,-4.41,
0.807,2.91,-14.26,4.94,1.65,-0.11,-4.36,
0.811,2.63,-14.55,4.69,1.65,-0.11,-4.36,
0.812,2.63,-14.55,4.69,1.74,-0.25,-4.31,
0.817,2.63,-14.55,4.69,1.83,-0.41,-4.25,
0.817,2.62,-14.81,4.44,1.83,-0.41,-4.25,
0.821,2.88,-15.08,4.24,1.83,-0.41,-4.25,
0.822,2.88,-15.08,4.24,1.91,-0.58,-4.19,
0.826,2.88,-15.08,4.24,2.00,-0.74,-4.16,
0.826,3.25,-15.39,3.95,2.00,-0.74,-4.16,
0.832,3.60,-15.74,3.57,2.00,-0.74,-4.16,
0.833,3.60,-15.74,3.57,2.08,-0.88,-4.16,
0.837,3.60,-15.74,3.57,2.15,-1.01,-4.19,
0.838,3.93,-15.78,3.37,2.15,-1.01,-4.19,
0.847,3.93,-15.78,3.37,2.20,-1.14,-4.23,
0.848,3.74,-16.69,2.88,2.20,-1.14,-4.23,
0.849,3.74,-16.69,2.88,2.23,-1.26,-4.29,
0.849,3.52,-17.50,2.33,2.23,-1.26,-4.29,
0.896,3.52,-17.50,2.33,2.23,-1.33,-4.36,
0.898,3.25,-18.17,1.79,2.23,-1.33,-4.36,
0.899,3.25,-18.17,1.79,2.20,-1.36,-4.44,
0.901,2.79,-18.60,1.32,2.20,-1.36,-4.44,
0.902,2.79,-18.60,1.32,2.14,-1.36,-4.53,
0.903,2.11,-18.90,0.94,2.14,-1.36,-4.53,
0.903,2.11,-18.90,0.94,2.06,-1.32,-4.61,
0.904,1.19,-19.13,0.52,2.06,-1.32,-4.61,
0.904,1.19,-19.13,0.52,1.95,-1.26,-4.69,
0.905,0.02,-19.32,0.10,1.95,-1.26,-4.69,
0.906,0.02,-19.32,0.10,1.83,-1.17,-4.75,
0.907,-1.41,-19.42,-0.43,1.83,-1.17,-4.75,
0.907,-1.41,-19.42,-0.43,1.69,-1.04,-4.77,
0.908,-3.13,-19.42,-0.93,1.69,-1.04,-4.77,
0.908,-3.13,-19.42,-0.93,1.53,-0.87,-4.75,
0.909,-5.06,-19.19,-1.27,1.53,-0.87,-4.75,
0.91,-5.06,-19.19,-1.27,1.37,-0.72,-4.68,
0.91,-7.00,-18.83,-1.49,1.37,-0.72,-4.68,
0.911,-9.07,-18.41,-1.63,1.37,-0.72,-4.68,
0.911,-9.07,-18.41,-1.63,1.22,-0.60,-4.55,
0.912,-9.07,-18.41,-1.63,1.09,-0.51,-4.35,
0.912,-11.25,-17.93,-1.65,1.09,-0.51,-4.35,
0.913,-11.25,-17.93,-1.65,1.00,-0.45,-4.09,
0.913,-13.47,-17.34,-1.43,1.00,-0.45,-4.09,
0.914,-13.47,-17.34,-1.43,0.95,-0.45,-3.78,
0.915,-15.47,-16.59,-1.05,0.95,-0.45,-3.78,
0.915,-17.20,-15.70,-0.55,0.95,-0.45,-3.78,
0.915,-17.20,-15.70,-0.55,0.96,-0.55,-3.42,
0.946,-18.38,-14.90,0.02,0.96,-0.55,-3.42,
0.946,-18.38,-14.90,0.02,1.02,-0.77,-3.01,
0.947,-18.38,-14.90,0.02,1.14,-1.06,-2.58,
0.947,-18.91,-14.35,0.58,1.14,-1.06,-2.58,
0.948,-18.91,-14.35,0.58,1.30,-1.40,-2.16,
0.948,-18.71,-14.15,1.08,1.30,-1.40,-2.16,
0.949,-18.71,-14.15,1.08,1.48,-1.72,-1.77,
0.949,-17.99,-14.25,1.40,1.48,-1.72,-1.77,
0.951,-17.99,-14.25,1.40,1.69,-2.02,-1.43,
0.952,-17.06,-14.45,1.56,1.69,-2.02,-1.43,
0.953,-17.06,-14.45,1.56,1.89,-2.24,-1.15,
0.953,-16.03,-14.67,1.49,1.89,-2.24,-1.15,
0.954,-16.03,-14.67,1.49,2.07,-2.39,-0.92,
0.954,-15.05,-14.81,1.33,2.07,-2.39,-0.92,
0.954,-15.05,-14.81,1.33,2.21,-2.46,-0.73,
0.955,-14.24,-14.93,0.99,2.21,-2.46,-0.73,
0.977,-14.24,-14.93,0.99,2.31,-2.46,-0.57,
0.978,-13.50,-15.07,0.42,2.31,-2.46,-0.57,
0.979,-13.50,-15.07,0.42,2.35,-2.41,-0.45,
0.979,-12.82,-15.18,-0.18,2.35,-2.41,-0.45,
0.98,-12.22,-15.24,-0.84,2.35,-2.41,-0.45,
0.98,-12.22,-15.24,-0.84,2.34,-2.33,-0.35,
0.98,-11.28,-14.92,-2.65,2.34,-2.33,-0.35,
0.981,-11.28,-14.92,-2.65,2.28,-2.28,-0.26,
0.981,-11.14,-15.26,-2.49,2.28,-2.28,-0.26,
0.982,-11.14,-15.26,-2.49,2.16,-2.33,-0.19,
0.982,-11.14,-15.26,-2.49,2.02,-2.26,-0.11,
0.982,-11.02,-15.75,-2.48,2.02,-2.26,-0.11,
0.987,-11.36,-16.11,-2.33,2.02,-2.26,-0.11,
0.988,-11.36,-16.11,-2.33,1.85,-2.14,-0.02,
0.992,-11.36,-16.11,-2.33,1.66,-1.93,0.09,
0.992,-11.93,-16.35,-1.92,1.66,-1.93,0.09,
0.996,-12.47,-16.40,-1.79,1.66,-1.93,0.09,
0.997,-12.47,-16.40,-1.79,1.45,-1.59,0.25,
1.027,-12.47,-16.40,-1.79,1.24,-1.17,0.46,
1.028,-12.78,-16.46,-1.50,1.24,-1.17,0.46,
1.028,-12.86,-16.51,-1.63,1.24,-1.17,0.46,
1.029,-12.86,-16.51,-1.63,1.02,-0.70,0.71,
1.029,-12.86,-16.51,-1.63,0.79,-0.27,0.97,
1.03,-12.71,-16.35,-2.17,0.79,-0.27,0.97,
1.03,-12.30,-16.12,-2.77,0.79,-0.27,0.97,
1.031,-12.30,-16.12,-2.77,0.57,0.07,1.23,
1.031,-12.30,-16.12,-2.77,0.35,0.30,1.48,
1.031,-11.65,-15.88,-3.30,0.35,0.30,1.48,
1.032,-10.97,-15.68,-3.61,0.35,0.30,1.48,
1.033,-10.97,-15.68,-3.61,0.13,0.42,1.70,
1.033,-10.40,-15.52,-3.79,0.13,0.42,1.70,
1.033,-10.40,-15.52,-3.79,-0.08,0.50,1.90,
1.042,-9.92,-15.37,-3.92,-0.08,0.50,1.90,
1.043,-9.92,-15.37,-3.92,-0.31,0.56,2.06,
1.044,-9.52,-15.23,-4.01,-0.31,0.56,2.06,
1.044,-9.52,-15.23,-4.01,-0.54,0.62,2.22,
1.045,-9.06,-15.04,-4.00,-0.54,0.62,2.22,
1.046,-9.06,-15.04,-4.00,-0.78,0.70,2.37,
1.05,-8.55,-14.88,-3.92,-0.78,0.70,2.37,
1.051,-8.55,-14.88,-3.92,-1.03,0.79,2.52,
1.073,-8.55,-14.88,-3.92,-1.29,0.90,2.66,
1.074,-8.08,-14.75,-3.71,-1.29,0.90,2.66,
1.074,-8.08,-14.75,-3.71,-1.54,1.02,2.79,
1.074,-7.57,-14.61,-3.43,-1.54,1.02,2.79,
1.075,-7.21,-14.53,-3.08,-1.54,1.02,2.79,
1.075,-7.21,-14.53,-3.08,-1.79,1.13,2.92,
1.076,-6.93,-14.47,-2.62,-1.79,1.13,2.92,
1.076,-6.93,-14.47,-2.62,-2.02,1.23,3.03,
1.076,-6.93,-14.47,-2.62,-2.23,1.29,3.14,
1.077,-6.75,-14.32,-2.17,-2.23,1.29,3.14,
1.106,-6.75,-14.32,-2.17,-2.42,1.32,3.26,
1.107,-6.54,-14.17,-1.60,-2.42,1.32,3.26,
1.107,-6.54,-14.17,-1.60,-2.58,1.32,3.37,
1.108,-6.22,-14.04,-0.97,-2.58,1.32,3.37,
1.108,-6.22,-14.04,-0.97,-2.72,1.31,3.50,
1.108,-5.86,-13.97,-0.36,-2.72,1.31,3.50,
1.109,-5.86,-13.97,-0.36,-2.83,1.28,3.62,
1.109,-5.52,-13.93,0.24,-2.83,1.28,3.62,
1.11,-5.19,-13.87,0.77,-2.83,1.28,3.62,
1.11,-5.19,-13.87,0.77,-2.90,1.23,3.73,
1.111,-4.87,-13.76,1.40,-2.90,1.23,3.73,
1.111,-4.87,-13.76,1.40,-2.95,1.16,3.85,
1.111,-4.87,-13.76,1.40,-2.97,1.07,3.97,
1.112,-4.44,-13.63,2.04,-2.97,1.07,3.97,
1.113,-4.44,-13.63,2.04,-2.96,0.95,4.08,
1.114,-3.85,-13.53,2.61,-2.96,0.95,4.08,
1.139,-3.85,-13.53,2.61,-2.92,0.83,4.20,
1.14,-3.24,-13.48,3.20,-2.92,0.83,4.20,
1.14,-3.24,-13.48,3.20,-2.85,0.71,4.30,
1.14,-2.59,-13.48,3.62,-2.85,0.71,4.30,
1.141,-2.59,-13.48,3.62,-2.76,0.61,4.41,
1.141,-2.01,-13.47,3.98,-2.76,0.61,4.41,
1.142,-2.01,-13.47,3.98,-2.66,0.53,4.51,
1.142,-1.48,-13.43,4.28,-2.66,0.53,4.51,
1.142,-0.98,-13.37,4.59,-2.66,0.53,4.51,
1.143,-0.98,-13.37,4.59,-2.54,0.47,4.61,
1.143,-0.98,-13.37,4.59,-2.41,0.44,4.71,
1.144,-0.46,-13.28,4.86,-2.41,0.44,4.71,
1.148,-0.46,-13.28,4.86,-2.28,0.41,4.80,
1.148,0.15,-13.19,5.07,-2.28,0.41,4.80,
1.152,0.15,-13.19,5.07,-2.14,0.40,4.89,
1.153,0.69,-13.07,5.18,-2.14,0.40,4.89,
1.158,0.69,-13.07,5.18,-2.00,0.40,4.98,
1.158,1.27,-13.02,5.09,-2.00,0.40,4.98,
1.163,1.27,-13.02,5.09,-1.87,0.39,5.05,
1.163,1.77,-12.99,4.85,-1.87,0.39,5.05,
1.167,1.77,-12.99,4.85,-1.75,0.38,5.13,
1.167,2.24,-13.00,4.58,-1.75,0.38,5.13,
1.175,2.24,-13.00,4.58,-1.66,0.39,5.21,
1.176,2.67,-12.97,4.23,-1.66,0.39,5.21,
1.177,3.08,-12.96,3.88,-1.66,0.39,5.21,
1.177,3.08,-12.96,3.88,-1.60,0.39,5.29,
1.182,3.08,-12.96,3.88,-1.57,0.42,5.37,
1.182,3.42,-12.93,3.44,-1.57,0.42,5.37,
1.207,3.42,-12.93,3.44,-1.57,0.45,5.45,
1.208,3.75,-12.88,3.07,-1.57,0.45,5.45,
1.208,4.10,-12.73,2.70,-1.57,0.45,5.45,
1.209,4.10,-12.73,2.70,-1.59,0.50,5.54,
1.209,4.47,-12.62,2.42,-1.59,0.50,5.54,
1.209,4.47,-12.62,2.42,-1.65,0.55,5.63,
1.21,4.97,-12.58,2.21,-1.65,0.55,5.63,
1.21,4.97,-12.58,2.21,-1.72,0.60,5.71,
1.211,5.49,-12.66,2.05,-1.72,0.60,5.71,
1.211,5.49,-12.66,2.05,-1.81,0.65,5.79,
1.211,5.49,-12.66,2.05,-1.91,0.69,5.87,
1.212,6.03,-12.81,1.97,-1.91,0.69,5.87,
1.216,6.63,-12.97,2.00,-1.91,0.69,5.87,
1.217,6.63,-12.97,2.00,-2.01,0.72,5.95,
1.221,6.63,-12.97,2.00,-2.12,0.76,6.04,
1.222,7.21,-13.18,2.16,-2.12,0.76,6.04,
1.226,7.82,-13.32,2.38,-2.12,0.76,6.04,
1.226,7.82,-13.32,2.38,-2.22,0.81,6.13,
1.231,7.82,-13.32,2.38,-2.32,0.88,6.22,
1.231,8.44,-13.39,2.73,-2.32,0.88,6.22,
1.236,8.44,-13.39,2.73,-2.41,0.97,6.30,
1.237,9.07,-13.30,3.07,-2.41,0.97,6.30,
1.241,9.07,-13.30,3.07,-2.50,1.07,6.38,
1.242,9.68,-13.17,3.42,-2.50,1.07,6.38,
1.283,9.68,-13.17,3.42,-2.58,1.17,6.45,
1.284,10.36,-12.96,3.68,-2.58,1.17,6.45,
1.285,10.36,-12.96,3.68,-2.64,1.26,6.51,
1.286,11.09,-12.77,3.95,-2.64,1.26,6.51,
1.287,11.09,-12.77,3.95,-2.70,1.34,6.55,
1.288,11.87,-12.58,4.25,-2.70,1.34,6.55,
1.289,11.87,-12.58,4.25,-2.75,1.40,6.58,
1.289,12.64,-12.34,4.61,-2.75,1.40,6.58,
1.29,12.64,-12.34,4.61,-2.77,1.45,6.58,
1.291,13.43,-12.01,4.97,-2.77,1.45,6.58,
1.291,13.43,-12.01,4.97,-2.78,1.48,6.57,
1.292,14.14,-11.59,5.32,-2.78,1.48,6.57,
1.292,14.14,-11.59,5.32,-2.77,1.49,6.55,
1.293,14.88,-11.15,5.62,-2.77,1.49,6.55,
1.293,14.88,-11.15,5.62,-2.73,1.48,6.51,
1.294,15.65,-10.78,5.89,-2.73,1.48,6.51,
1.294,16.41,-10.37,6.03,-2.73,1.48,6.51,
1.295,16.41,-10.37,6.03,-2.68,1.46,6.45,
1.295,16.41,-10.37,6.03,-2.63,1.41,6.38,
1.296,17.08,-9.82,6.15,-2.63,1.41,6.38,
1.296,17.72,-9.19,6.11,-2.63,1.41,6.38,
1.296,17.72,-9.19,6.11,-2.56,1.34,6.30,
1.307,17.72,-9.19,6.11,-2.50,1.25,6.20,
1.308,18.26,-8.54,5.97,-2.50,1.25,6.20,
1.308,18.26,-8.54,5.97,-2.44,1.16,6.08,
1.31,18.70,-7.84,5.84,-2.44,1.16,6.08,
1.311,18.70,-7.84,5.84,-2.40,1.06,5.95,
1.311,19.07,-7.08,5.69,-2.40,1.06,5.95,
1.344,19.30,-6.25,5.59,-2.40,1.06,5.95,
1.345,19.30,-6.25,5.59,-2.36,0.96,5.83,
1.345,19.30,-6.25,5.59,-2.34,0.86,5.70,
1.346,19.57,-5.42,5.57,-2.34,0.86,5.70,
1.346,19.57,-5.42,5.57,-2.33,0.76,5.56,
1.346,19.79,-4.52,5.64,-2.33,0.76,5.56,
1.347,19.79,-4.52,5.64,-2.32,0.66,5.42,
1.347,19.98,-3.55,5.79,-2.32,0.66,5.42,
1.347,20.09,-2.63,5.96,-2.32,0.66,5.42,
1.348,20.09,-2.63,5.96,-2.32,0.59,5.29,
1.348,20.16,-1.76,6.10,-2.32,0.59,5.29,
1.349,20.16,-1.76,6.10,-2.32,0.56,5.15,
1.349,20.27,-0.88,6.18,-2.32,0.56,5.15,
1.349,20.27,-0.88,6.18,-2.33,0.55,5.01,
1.35,20.49,0.00,6.29,-2.33,0.55,5.01,
1.35,20.49,0.00,6.29,-2.36,0.54,4.87,
1.358,20.71,0.94,6.44,-2.36,0.54,4.87,
1.359,20.71,0.94,6.44,-2.39,0.56,4.73,
1.36,21.03,2.00,6.69,-2.39,0.56,4.73,
1.36,21.03,2.00,6.69,-2.44,0.59,4.57,
1.362,21.40,3.04,6.92,-2.44,0.59,4.57,
1.363,21.40,3.04,6.92,-2.48,0.63,4.39,
1.367,21.40,3.04,6.92,-2.52,0.67,4.18,
1.368,21.68,4.01,7.11,-2.52,0.67,4.18,
1.392,21.68,4.01,7.11,-2.57,0.70,3.95,
1.393,21.78,4.87,7.35,-2.57,0.70,3.95,
1.393,21.78,4.87,7.35,-2.62,0.73,3.69,
1.393,21.94,5.64,7.65,-2.62,0.73,3.69,
1.394,21.94,5.64,7.65,-2.66,0.78,3.43,
1.394,21.90,6.35,7.88,-2.66,0.78,3.43,
1.394,21.56,6.95,8.03,-2.66,0.78,3.43,
1.395,21.56,6.95,8.03,-2.71,0.85,3.16,
1.395,21.56,6.95,8.03,-2.76,0.95,2.89,
1.395,21.06,7.47,8.01,-2.76,0.95,2.89,
1.397,21.06,7.47,8.01,-2.82,1.07,2.64,
1.397,20.55,7.94,7.89,-2.82,1.07,2.64,
1.403,20.55,7.94,7.89,-2.89,1.22,2.39,
1.404,20.13,8.21,7.96,-2.89,1.22,2.39,
1.407,19.81,8.31,8.20,-2.89,1.22,2.39,
1.407,19.81,8.31,8.20,-2.96,1.41,2.16,
1.411,19.81,8.31,8.20,-3.03,1.65,1.92,
1.412,19.66,8.29,8.60,-3.03,1.65,1.92,
1.416,19.66,8.29,8.60,-3.07,1.94,1.67,
1.417,19.62,8.21,9.09,-3.07,1.94,1.67,
1.425,19.62,8.21,9.09,-3.09,2.25,1.40,
1.426,19.62,8.08,9.65,-3.09,2.25,1.40,
1.426,19.41,7.83,10.16,-3.09,2.25,1.40,
1.427,19.41,7.83,10.16,-3.07,2.55,1.11,
1.432,18.77,7.65,10.56,-3.07,2.55,1.11,
1.432,18.77,7.65,10.56,-3.02,2.83,0.81,
1.469,18.77,7.65,10.56,-2.91,3.04,0.53,
1.471,17.82,7.68,10.64,-2.91,3.04,0.53,
1.471,16.57,7.88,10.41,-2.91,3.04,0.53,
1.472,16.57,7.88,10.41,-2.75,3.14,0.27,
1.472,15.49,8.00,10.04,-2.75,3.14,0.27,
1.473,15.49,8.00,10.04,-2.58,3.15,0.05,
1.473,14.45,7.92,9.61,-2.58,3.15,0.05,
1.474,14.45,7.92,9.61,-2.41,3.10,-0.14,
1.474,13.46,7.65,9.15,-2.41,3.10,-0.14,
1.475,13.46,7.65,9.15,-2.24,2.98,-0.28,
1.475,13.46,7.65,9.15,-2.09,2.80,-0.37,
1.476,12.60,7.33,8.84,-2.09,2.80,-0.37,
1.476,12.60,7.33,8.84,-1.93,2.57,-0.43,
1.477,11.95,6.99,8.53,-1.93,2.57,-0.43,
1.477,11.56,6.72,8.42,-1.93,2.57,-0.43,
1.478,11.56,6.72,8.42,-1.78,2.32,-0.46,
1.478,11.56,6.72,8.42,-1.64,2.07,-0.47,
1.479,11.36,6.44,8.61,-1.64,2.07,-0.47,
1.479,11.36,6.44,8.61,-1.49,1.81,-0.46,
1.48,11.20,6.09,9.02,-1.49,1.81,-0.46,
1.485,11.20,6.09,9.02,-1.31,1.54,-0.43,
1.485,10.93,5.72,9.60,-1.31,1.54,-0.43,
1.523,9.56,4.20,10.93,-1.31,1.54,-0.43,
1.524,9.56,4.20,10.93,-1.10,1.27,-0.36,
1.524,9.56,4.20,10.93,-0.80,0.93,-0.20,
1.525,9.68,4.73,11.30,-0.80,0.93,-0.20,
1.525,10.19,5.55,10.88,-0.80,0.93,-0.20,
1.526,10.19,5.55,10.88,-0.48,0.60,-0.04,
1.527,10.19,5.55,10.88,-0.24,0.31,0.07,
1.527,10.89,6.12,10.65,-0.24,0.31,0.07,
1.528,10.89,6.12,10.65,-0.04,0.01,0.13,
1.528,11.78,6.36,11.14,-0.04,0.01,0.13,
1.529,12.58,6.26,11.76,-0.04,0.01,0.13,
1.529,12.58,6.26,11.76,0.18,-0.33,0.17,
1.53,13.32,6.06,12.02,0.18,-0.33,0.17,
1.53,13.32,6.06,12.02,0.43,-0.66,0.19,
1.531,13.32,6.06,12.02,0.68,-0.92,0.19,
1.531,14.00,5.94,12.22,0.68,-0.92,0.19,
1.532,14.00,5.94,12.22,0.91,-1.12,0.17,
1.532,14.66,6.04,12.55,0.91,-1.12,0.17,
1.535,15.24,6.23,12.98,0.91,-1.12,0.17,
1.537,15.24,6.23,12.98,1.12,-1.25,0.12,
1.538,15.97,6.45,13.49,1.12,-1.25,0.12,
1.539,15.97,6.45,13.49,1.33,-1.34,0.02,
1.543,16.76,6.66,14.00,1.33,-1.34,0.02,
1.544,16.76,6.66,14.00,1.56,-1.37,-0.13,
1.548,17.55,6.75,14.53,1.56,-1.37,-0.13,
1.549,17.55,6.75,14.53,1.80,-1.38,-0.34,
1.553,18.09,6.76,14.87,1.80,-1.38,-0.34,
1.554,18.09,6.76,14.87,2.08,-1.38,-0.61,
1.558,18.41,6.70,14.91,2.08,-1.38,-0.61,
1.559,18.41,6.70,14.91,2.40,-1.38,-0.92,
1.563,18.34,6.45,14.62,2.40,-1.38,-0.92,
1.564,18.34,6.45,14.62,2.73,-1.36,-1.28,
1.568,17.83,6.03,13.99,2.73,-1.36,-1.28,
1.568,17.83,6.03,13.99,3.07,-1.33,-1.64,
1.577,17.02,5.44,13.01,3.07,-1.33,-1.64,
1.578,17.02,5.44,13.01,3.40,-1.30,-2.00,
1.579,16.06,4.85,11.75,3.40,-1.30,-2.00,
1.58,16.06,4.85,11.75,3.69,-1.28,-2.34,
1.582,15.03,4.22,10.35,3.69,-1.28,-2.34,
1.583,15.03,4.22,10.35,3.93,-1.29,-2.64,
1.61,15.03,4.22,10.35,4.09,-1.27,-2.90,
1.612,14.24,3.64,9.15,4.09,-1.27,-2.90,
1.612,14.24,3.64,9.15,4.16,-1.19,-3.12,
1.612,13.74,3.02,8.12,4.16,-1.19,-3.12,
1.613,13.74,3.02,8.12,4.17,-1.06,-3.30,
1.613,13.21,2.37,7.42,4.17,-1.06,-3.30,
1.614,12.63,1.78,6.92,4.17,-1.06,-3.30,
1.614,12.63,1.78,6.92,4.15,-0.97,-3.47,
1.615,12.63,1.78,6.92,4.15,-0.99,-3.63,
1.615,12.05,1.16,6.39,4.15,-0.99,-3.63,
1.616,12.05,1.16,6.39,4.17,-1.09,-3.79,
1.616,11.57,0.61,5.88,4.17,-1.09,-3.79,
1.617,11.18,0.10,5.46,4.17,-1.09,-3.79,
1.617,11.18,0.10,5.46,4.18,-1.22,-3.92,
1.622,11.18,0.10,5.46,4.17,-1.35,-4.04,
1.622,10.93,-0.46,5.09,4.17,-1.35,-4.04,
1.626,10.93,-0.46,5.09,4.15,-1.49,-4.14,
1.627,10.76,-1.13,4.84,4.15,-1.49,-4.14,
1.631,10.76,-1.13,4.84,4.11,-1.65,-4.23,
1.632,10.65,-1.89,4.68,4.11,-1.65,-4.23,
1.643,10.65,-1.89,4.68,4.07,-1.84,-4.31,
1.644,10.58,-2.59,4.57,4.07,-1.84,-4.31,
1.645,10.58,-2.59,4.57,4.04,-2.05,-4.38,
1.645,10.51,-3.32,4.57,4.04,-2.05,-4.38,
1.646,10.51,-3.99,4.64,4.04,-2.05,-4.38,
1.646,10.51,-3.99,4.64,4.02,-2.29,-4.45,
1.65,10.51,-3.99,4.64,4.01,-2.55,-4.50,
1.651,10.65,-4.64,4.65,4.01,-2.55,-4.50,
1.681,10.65,-4.64,4.65,4.01,-2.86,-4.54,
1.682,10.95,-5.36,4.76,4.01,-2.86,-4.54,
1.682,10.95,-5.36,4.76,4.01,-3.20,-4.59,
1.682,11.30,-6.14,4.83,4.01,-3.20,-4.59,
1.683,11.30,-6.14,4.83,4.00,-3.56,-4.63,
1.683,11.74,-6.96,4.89,4.00,-3.56,-4.63,
1.684,11.74,-6.96,4.89,3.99,-3.92,-4.67,
1.684,12.31,-7.76,4.91,3.99,-3.92,-4.67,
1.685,12.31,-7.76,4.91,3.97,-4.28,-4.73,
1.685,12.93,-8.54,4.99,3.97,-4.28,-4.73,
1.686,12.93,-8.54,4.99,3.94,-4.64,-4.79,
1.686,13.58,-9.34,5.05,3.94,-4.64,-4.79,
1.686,14.29,-10.14,5.16,3.94,-4.64,-4.79,
1.687,14.29,-10.14,5.16,3.90,-4.98,-4.86,
1.69,15.04,-10.91,5.31,3.90,-4.98,-4.86,
1.691,15.04,-10.91,5.31,3.84,-5.30,-4.94,
1.694,15.04,-10.91,5.31,3.77,-5.58,-5.03,
1.695,15.88,-11.60,5.42,3.77,-5.58,-5.03,
1.699,15.88,-11.60,5.42,3.67,-5.81,-5.13,
1.7,16.71,-12.28,5.48,3.67,-5.81,-5.13,
1.705,16.71,-12.28,5.48,3.56,-5.99,-5.25,
1.706,17.49,-12.96,5.46,3.56,-5.99,-5.25,
1.71,17.49,-12.96,5.46,3.42,-6.13,-5.38,
1.711,18.15,-13.62,5.44,3.42,-6.13,-5.38,
1.714,18.73,-14.31,5.52,3.42,-6.13,-5.38,
1.715,18.73,-14.31,5.52,3.25,-6.21,-5.54,
1.719,19.20,-14.93,5.65,3.25,-6.21,-5.54,
1.72,19.20,-14.93,5.65,3.07,-6.23,-5.70,
1.73,19.20,-14.93,5.65,2.89,-6.18,-5.88,
1.731,19.58,-15.49,5.92,2.89,-6.18,-5.88,
1.732,19.77,-15.97,6.17,2.89,-6.18,-5.88,
1.732,19.77,-15.97,6.17,2.70,-6.06,-6.06,
1.776,19.88,-16.39,6.36,2.70,-6.06,-6.06,
1.777,19.88,-16.39,6.36,2.52,-5.87,-6.26,
1.777,19.86,-16.77,6.48,2.52,-5.87,-6.26,
1.778,19.86,-16.77,6.48,2.35,-5.64,-6.47,
1.778,19.86,-16.77,6.48,2.18,-5.38,-6.67,
1.779,19.71,-17.07,6.50,2.18,-5.38,-6.67,
1.779,19.71,-17.07,6.50,2.00,-5.10,-6.89,
1.78,19.32,-17.30,6.37,2.00,-5.10,-6.89,
1.781,19.32,-17.30,6.37,1.82,-4.82,-7.12,
1.781,18.87,-17.55,6.14,1.82,-4.82,-7.12,
1.782,18.42,-17.99,5.83,1.82,-4.82,-7.12,
1.782,18.42,-17.99,5.83,1.63,-4.53,-7.33,
1.783,18.01,-18.56,5.45,1.63,-4.53,-7.33,
1.783,18.01,-18.56,5.45,1.43,-4.24,-7.54,
1.784,17.52,-19.26,5.05,1.43,-4.24,-7.54,
1.785,17.52,-19.26,5.05,1.21,-3.91,-7.72,
1.785,17.01,-19.96,4.55,1.21,-3.91,-7.72,
1.786,17.01,-19.96,4.55,0.98,-3.55,-7.88,
1.786,16.39,-20.59,3.93,0.98,-3.55,-7.88,
1.787,16.39,-20.59,3.93,0.72,-3.15,-8.02,
1.787,16.39,-20.59,3.93,0.44,-2.71,-8.12,
1.788,15.66,-21.13,3.31,0.44,-2.71,-8.12,
1.788,15.66,-21.13,3.31,0.14,-2.22,-8.20,
1.789,14.76,-21.63,2.64,0.14,-2.22,-8.20,
1.792,14.76,-21.63,2.64,-0.19,-1.69,-8.25,
1.793,13.73,-22.10,2.04,-0.19,-1.69,-8.25,
1.797,13.73,-22.10,2.04,-0.54,-1.14,-8.27,
1.798,12.56,-22.55,1.46,-0.54,-1.14,-8.27,
1.802,12.56,-22.55,1.46,-0.91,-0.58,-8.25,
1.802,11.37,-22.93,0.98,-0.91,-0.58,-8.25,
1.808,10.25,-23.12,0.70,-0.91,-0.58,-8.25,
1.809,10.25,-23.12,0.70,-1.28,-0.01,-8.19,
1.812,10.25,-23.12,0.70,-1.63,0.54,-8.11,
1.813,9.16,-23.16,0.61,-1.63,0.54,-8.11,
1.817,9.16,-23.16,0.61,-1.96,1.08,-8.01,
1.817,8.08,-23.14,0.77,-1.96,1.08,-8.01,
1.83,8.08,-23.14,0.77,-2.24,1.57,-7.89,
1.831,7.07,-23.03,1.05,-2.24,1.57,-7.89,
1.832,7.07,-23.03,1.05,-2.46,2.02,-7.77,
1.832,5.98,-22.87,1.37,-2.46,2.02,-7.77,
1.833,5.98,-22.87,1.37,-2.62,2.39,-7.64,
1.833,4.86,-22.78,1.74,-2.62,2.39,-7.64,
1.835,4.86,-22.78,1.74,-2.73,2.70,-7.49,
1.836,3.78,-22.71,2.19,-2.73,2.70,-7.49,
1.869,2.70,-22.56,2.80,-2.73,2.70,-7.49,
1.871,2.70,-22.56,2.80,-2.76,2.94,-7.32,
1.871,2.70,-22.56,2.80,-2.73,3.12,-7.14,
1.872,1.73,-22.31,3.51,-2.73,3.12,-7.14,
1.872,1.73,-22.31,3.51,-2.61,3.21,-6.95,
1.873,0.76,-21.90,4.25,-2.61,3.21,-6.95,
1.873,0.76,-21.90,4.25,-2.42,3.19,-6.74,
1.874,-0.12,-21.44,4.89,-2.42,3.19,-6.74,
1.875,-0.90,-21.00,5.43,-2.42,3.19,-6.74,
1.875,-0.90,-21.00,5.43,-2.16,3.08,-6.52,
1.876,-0.90,-21.00,5.43,-1.84,2.88,-6.29,
1.877,-1.62,-20.60,5.79,-1.84,2.88,-6.29,
1.877,-2.20,-20.27,6.07,-1.84,2.88,-6.29,
1.878,-2.20,-20.27,6.07,-1.48,2.59,-6.05,
1.878,-2.52,-19.91,6.28,-1.48,2.59,-6.05,
1.879,-2.52,-19.91,6.28,-1.09,2.23,-5.80,
1.88,-2.66,-19.65,6.43,-1.09,2.23,-5.80,
1.88,-2.66,-19.65,6.43,-0.68,1.82,-5.54,
1.885,-2.64,-19.40,6.54,-0.68,1.82,-5.54,
1.885,-2.64,-19.40,6.54,-0.26,1.37,-5.30,
1.89,-2.64,-19.40,6.54,0.15,0.91,-5.06,
1.892,-2.57,-19.15,6.65,0.15,0.91,-5.06,
1.895,-2.42,-18.84,6.69,0.15,0.91,-5.06,
1.895,-2.42,-18.84,6.69,0.55,0.47,-4.84,
1.9,-2.31,-18.51,6.71,0.55,0.47,-4.84,
1.9,-2.31,-18.51,6.71,0.94,0.06,-4.64,
1.905,-2.20,-18.24,6.66,0.94,0.06,-4.64,
1.906,-2.20,-18.24,6.66,1.31,-0.29,-4.47,
1.909,-2.10,-17.98,6.48,1.31,-0.29,-4.47,
1.91,-2.10,-17.98,6.48,1.65,-0.61,-4.31,
1.914,-2.10,-17.98,6.48,1.96,-0.88,-4.18,
1.915,-2.06,-17.69,6.24,1.96,-0.88,-4.18,
1.919,-2.06,-17.40,5.94,1.96,-0.88,-4.18,
1.919,-2.06,-17.40,5.94,2.23,-1.10,-4.06,
1.925,-2.10,-17.08,5.54,2.23,-1.10,-4.06,
1.926,-2.10,-17.08,5.54,2.45,-1.28,-3.97,
1.929,-2.18,-16.82,5.17,2.45,-1.28,-3.97,
1.929,-2.18,-16.82,5.17,2.63,-1.41,-3.89,
1.934,-2.26,-16.62,4.70,2.63,-1.41,-3.89,
1.934,-2.26,-16.62,4.70,2.76,-1.49,-3.82,
1.946,-2.26,-16.62,4.70,2.85,-1.53,-3.75,
1.947,-2.36,-16.47,4.21,2.85,-1.53,-3.75,
1.948,-2.47,-16.37,3.76,2.85,-1.53,-3.75,
1.949,-2.47,-16.37,3.76,2.89,-1.53,-3.69,
1.949,-2.61,-16.21,3.35,2.89,-1.53,-3.69,
1.95,-2.61,-16.21,3.35,2.89,-1.50,-3.63,
1.953,-2.61,-16.21,3.35,2.85,-1.42,-3.57,
1.954,-2.73,-16.16,2.97,2.85,-1.42,-3.57,
1.996,-2.73,-16.16,2.97,2.78,-1.32,-3.51,
1.997,-2.82,-16.03,2.67,2.78,-1.32,-3.51,
1.998,-2.82,-16.03,2.67,2.69,-1.19,-3.45,
1.998,-2.93,-16.01,2.40,2.69,-1.19,-3.45,
1.999,-2.93,-16.01,2.40,2.58,-1.03,-3.38,
1.999,-3.11,-16.06,2.20,2.58,-1.03,-3.38,
1.999,-3.23,-16.14,2.05,2.58,-1.03,-3.38,
2.0,-3.23,-16.14,2.05,2.46,-0.86,-3.31,
2.056,-3.35,-16.19,1.87,2.46,-0.86,-3.31,
2.057,-3.35,-16.19,1.87,2.33,-0.68,-3.23,
2.058,-3.41,-16.24,1.76,2.33,-0.68,-3.23,
2.058,-3.41,-16.24,1.76,2.20,-0.50,-3.17,
2.059,-3.41,-16.24,1.76,2.06,-0.33,-3.11,
2.059,-3.58,-16.22,1.64,2.06,-0.33,-3.11,
2.059,-3.86,-16.27,1.47,2.06,-0.33,-3.11,
2.06,-3.86,-16.27,1.47,1.92,-0.15,-3.06,
2.06,-4.22,-16.34,1.29,1.92,-0.15,-3.06,
2.061,-4.22,-16.34,1.29,1.77,0.02,-3.01,
2.061,-4.22,-16.34,1.29,1.63,0.18,-2.96,
2.062,-4.71,-16.38,1.04,1.63,0.18,-2.96,
2.062,-4.71,-16.38,1.04,1.49,0.32,-2.91,
2.062,-5.34,-16.48,0.81,1.49,0.32,-2.91,
2.063,-6.02,-16.60,0.59,1.49,0.32,-2.91,
2.063,-6.02,-16.60,0.59,1.35,0.45,-2.83,
2.063,-6.80,-16.66,0.42,1.35,0.45,-2.83,
2.064,-6.80,-16.66,0.42,1.21,0.52,-2.74,
2.064,-7.59,-16.72,0.31,1.21,0.52,-2.74,
2.065,-7.59,-16.72,0.31,1.07,0.58,-2.62,
2.065,-7.59,-16.72,0.31,0.93,0.61,-2.46,
2.065,-8.45,-16.69,0.27,0.93,0.61,-2.46,
2.066,-9.26,-16.67,0.29,0.93,0.61,-2.46,
2.066,-9.26,-16.67,0.29,0.81,0.62,-2.27,
2.066,-9.26,-16.67,0.29,0.70,0.61,-2.05,
2.067,-10.01,-16.68,0.42,0.70,0.61,-2.05,
2.067,-10.01,-16.68,0.42,0.60,0.58,-1.80,
2.067,-10.68,-16.78,0.53,0.60,0.58,-1.80,
2.068,-10.68,-16.78,0.53,0.52,0.53,-1.51,
2.068,-11.24,-16.93,0.61,0.52,0.53,-1.51,
2.068,-11.24,-16.93,0.61,0.46,0.45,-1.21,
2.069,-11.64,-17.19,0.61,0.46,0.45,-1.21,
2.069,-11.64,-17.19,0.61,0.41,0.34,-0.89,
2.07,-11.80,-17.56,0.57,0.41,0.34,-0.89,
2.07,-11.80,-17.56,0.57,0.37,0.19,-0.55,
2.07,-11.80,-17.95,0.41,0.37,0.19,-0.55,
2.071,-11.80,-17.95,0.41,0.33,0.04,-0.23,
2.071,-11.72,-18.33,0.21,0.33,0.04,-0.23,
2.072,-11.56,-18.65,0.03,0.33,0.04,-0.23,
2.072,-11.56,-18.65,0.03,0.29,-0.11,0.09,
2.08,-11.56,-18.65,0.03,0.23,-0.25,0.40,
2.081,-11.34,-18.81,-0.24,0.23,-0.25,0.40,
2.081,-11.08,-18.97,-0.54,0.23,-0.25,0.40,
2.082,-11.08,-18.97,-0.54,0.15,-0.38,0.69,
2.084,-10.81,-19.11,-0.80,0.15,-0.38,0.69,
2.085,-10.81,-19.11,-0.80,0.05,-0.48,0.97,
2.113,-10.81,-19.11,-0.80,-0.08,-0.55,1.24,
2.114,-10.53,-19.35,-1.11,-0.08,-0.55,1.24,
2.114,-10.53,-19.35,-1.11,-0.24,-0.59,1.50,
2.114,-10.39,-19.57,-1.38,-0.24,-0.59,1.50,
2.115,-10.39,-19.57,-1.38,-0.42,-0.59,1.74,
2.115,-10.22,-19.67,-1.57,-0.42,-0.59,1.74,
2.116,-10.22,-19.67,-1.57,-0.64,-0.56,1.98,
2.116,-10.09,-19.72,-1.69,-0.64,-0.56,1.98,
2.117,-10.09,-19.72,-1.69,-0.88,-0.51,2.22,
2.117,-9.95,-19.74,-1.73,-0.88,-0.51,2.22,
2.118,-9.95,-19.74,-1.73,-1.14,-0.44,2.45,
2.118,-9.78,-19.78,-1.55,-1.14,-0.44,2.45,
2.119,-9.78,-19.78,-1.55,-1.41,-0.35,2.67,
2.119,-9.56,-19.79,-1.30,-1.41,-0.35,2.67,
2.129,-9.56,-19.79,-1.30,-1.67,-0.26,2.89,
2.13,-9.40,-19.86,-1.01,-1.67,-0.26,2.89,
2.13,-9.40,-19.86,-1.01,-1.93,-0.16,3.11,
2.13,-9.27,-19.96,-0.71,-1.93,-0.16,3.11,
2.133,-9.27,-19.96,-0.71,-2.18,-0.06,3.33,
2.134,-9.13,-20.10,-0.44,-2.18,-0.06,3.33,
2.161,-8.89,-20.26,-0.02,-2.18,-0.06,3.33,
2.161,-8.89,-20.26,-0.02,-2.43,0.04,3.57,
2.162,-8.89,-20.26,-0.02,-2.66,0.12,3.82,
2.162,-8.49,-20.43,0.50,-2.66,0.12,3.82,
2.163,-8.49,-20.43,0.50,-2.87,0.21,4.07,
2.163,-7.99,-20.58,1.14,-2.87,0.21,4.07,
2.163,-7.99,-20.58,1.14,-3.06,0.29,4.32,
2.164,-7.35,-20.67,1.87,-3.06,0.29,4.32,
2.164,-7.35,-20.67,1.87,-3.20,0.35,4.56,
2.164,-6.56,-20.71,2.75,-3.20,0.35,4.56,
2.165,-5.60,-20.66,3.64,-3.20,0.35,4.56,
2.165,-5.60,-20.66,3.64,-3.30,0.40,4.79,
2.167,-5.60,-20.66,3.64,-3.35,0.42,4.99,
2.168,-4.63,-20.61,4.46,-3.35,0.42,4.99,
2.173,-4.63,-20.61,4.46,-3.35,0.43,5.16,
2.173,-3.82,-20.55,5.15,-3.35,0.43,5.16,
2.177,-3.16,-20.53,5.71,-3.35,0.43,5.16,
2.178,-3.16,-20.53,5.71,-3.31,0.43,5.31,
2.182,-3.16,-20.53,5.71,-3.23,0.43,5.45,
2.182,-2.62,-20.57,6.09,-3.23,0.43,5.45,
2.187,-2.62,-20.57,6.09,-3.12,0.43,5.58,
2.187,-2.20,-20.56,6.41,-3.12,0.43,5.58,
2.197,-2.20,-20.56,6.41,-3.00,0.44,5.71,
2.198,-1.83,-20.49,6.69,-3.00,0.44,5.71,
2.199,-1.46,-20.30,6.90,-3.00,0.44,5.71,
2.199,-1.46,-20.30,6.90,-2.85,0.44,5.84,
2.201,-1.09,-20.10,7.01,-2.85,0.44,5.84,
2.202,-1.09,-20.10,7.01,-2.69,0.44,5.98,
2.24,-1.09,-20.10,7.01,-2.53,0.45,6.11,
2.241,-0.76,-19.99,7.13,-2.53,0.45,6.11,
2.241,-0.76,-19.99,7.13,-2.34,0.46,6.24,
2.242,-0.36,-19.98,7.21,-2.34,0.46,6.24,
2.242,-0.36,-19.98,7.21,-2.14,0.47,6.37,
2.242,0.12,-20.07,7.28,-2.14,0.47,6.37,
2.276,0.12,-20.07,7.28,-1.92,0.46,6.49,
2.277,0.63,-20.25,7.32,-1.92,0.46,6.49,
2.277,1.17,-20.48,7.37,-1.92,0.46,6.49,
2.277,1.17,-20.48,7.37,-1.68,0.43,6.62,
2.278,1.17,-20.48,7.37,-1.44,0.42,6.76,
2.278,1.85,-20.75,7.29,-1.44,0.42,6.76,
2.279,2.57,-21.13,7.14,-1.44,0.42,6.76,
2.279,2.57,-21.13,7.14,-1.18,0.40,6.89,
2.28,3.33,-21.62,6.83,-1.18,0.40,6.89,
2.28,3.33,-21.62,6.83,-0.91,0.39,7.03,
2.281,3.33,-21.62,6.83,-0.65,0.37,7.18,
2.281,4.16,-22.19,6.41,-0.65,0.37,7.18,
2.282,4.16,-22.19,6.41,-0.40,0.35,7.34,
2.282,5.08,-22.84,5.82,-0.40,0.35,7.34,
2.283,5.08,-22.84,5.82,-0.18,0.34,7.51,
2.283,6.08,-23.44,5.14,-0.18,0.34,7.51,
2.284,6.08,-23.44,5.14,0.02,0.35,7.69,
2.284,7.11,-24.06,4.44,0.02,0.35,7.69,
2.285,8.24,-24.65,3.64,0.02,0.35,7.69,
2.285,8.24,-24.65,3.64,0.17,0.39,7.87,
2.285,9.47,-25.30,2.77,0.17,0.39,7.87,
2.286,9.47,-25.30,2.77,0.28,0.45,8.06,
2.286,9.47,-25.30,2.77,0.34,0.55,8.25,
2.287,10.75,-26.00,1.87,0.34,0.55,8.25,
2.288,10.75,-26.00,1.87,0.33,0.69,8.45,
2.288,12.07,-26.59,0.99,0.33,0.69,8.45,
2.289,12.07,-26.59,0.99,0.28,0.85,8.64,
2.289,13.44,-27.11,0.13,0.28,0.85,8.64,
2.29,13.44,-27.11,0.13,0.15,1.04,8.83,
2.29,14.80,-27.56,-0.58,0.15,1.04,8.83,
2.299,16.11,-27.89,-1.18,0.15,1.04,8.83,
2.3,16.11,-27.89,-1.18,-0.01,1.26,9.01,
2.301,17.37,-28.01,-1.58,-0.01,1.26,9.01,
2.301,17.37,-28.01,-1.58,-0.22,1.49,9.17,
2.304,17.37,-28.01,-1.58,-0.47,1.71,9.32,
2.304,18.49,-27.92,-1.75,-0.47,1.71,9.32,
2.33,18.49,-27.92,-1.75,-0.73,1.90,9.44,
2.331,19.61,-27.64,-1.68,-0.73,1.90,9.44,
2.331,19.61,-27.64,-1.68,-0.98,2.06,9.54,
2.332,20.58,-27.19,-1.41,-0.98,2.06,9.54,
2.332,21.35,-26.65,-0.96,-0.98,2.06,9.54,
2.333,21.35,-26.65,-0.96,-1.22,2.17,9.62,
2.333,21.35,-26.65,-0.96,-1.43,2.22,9.67,
2.334,22.06,-26.07,-0.40,-1.43,2.22,9.67,
2.334,22.06,-26.07,-0.40,-1.60,2.20,9.70,
2.335,22.75,-25.49,0.30,-1.60,2.20,9.70,
2.335,22.75,-25.49,0.30,-1.72,2.12,9.72,
2.335,23.39,-24.96,1.10,-1.72,2.12,9.72,
2.343,23.39,-24.96,1.10,-1.78,1.97,9.73,
2.344,24.04,-24.42,1.94,-1.78,1.97,9.73,
2.345,24.04,-24.42,1.94,-1.77,1.76,9.72,
2.345,24.71,-23.90,2.91,-1.77,1.76,9.72,
2.376,25.43,-23.26,3.84,-1.77,1.76,9.72,
2.376,25.43,-23.26,3.84,-1.68,1.50,9.71,
2.377,25.43,-23.26,3.84,-1.52,1.19,9.69,
2.377,26.13,-22.42,4.73,-1.52,1.19,9.69,
2.378,26.13,-22.42,4.73,-1.28,0.85,9.65,
2.378,26.79,-21.46,5.58,-1.28,0.85,9.65,
2.379,26.79,-21.46,5.58,-0.98,0.47,9.58,
2.379,27.32,-20.36,6.33,-0.98,0.47,9.58,
2.38,27.32,-20.36,6.33,-0.61,0.07,9.49,
2.38,27.80,-19.13,6.85,-0.61,0.07,9.49,
2.381,27.80,-19.13,6.85,-0.20,-0.33,9.38,
2.381,28.24,-17.84,7.22,-0.20,-0.33,9.38,
2.381,28.63,-16.47,7.42,-0.20,-0.33,9.38,
2.382,28.63,-16.47,7.42,0.25,-0.71,9.23,
2.382,28.98,-15.10,7.44,0.25,-0.71,9.23,
2.383,28.98,-15.10,7.44,0.72,-1.05,9.05,
2.387,29.25,-13.74,7.30,0.72,-1.05,9.05,
2.388,29.25,-13.74,7.30,1.19,-1.34,8.85,
2.397,29.43,-12.26,6.92,1.19,-1.34,8.85,
2.397,29.43,-12.26,6.92,1.66,-1.56,8.61,
2.398,29.44,-10.85,6.24,1.66,-1.56,8.61,
2.398,29.44,-10.85,6.24,2.11,-1.70,8.33,
2.401,29.38,-9.51,5.26,2.11,-1.70,8.33,
2.402,29.38,-9.51,5.26,2.50,-1.75,8.04,
2.438,29.38,-9.51,5.26,2.82,-1.71,7.72,
2.439,29.26,-8.20,3.96,2.82,-1.71,7.72,
2.439,29.14,-6.87,2.38,2.82,-1.71,7.72,
2.44,29.14,-6.87,2.38,3.04,-1.59,7.39,
2.441,28.81,-5.57,0.66,3.04,-1.59,7.39,
2.441,28.81,-5.57,0.66,3.15,-1.40,7.05,
2.442,28.81,-5.57,0.66,3.14,-1.14,6.70,
2.442,28.41,-4.25,-0.86,3.14,-1.14,6.70,
2.442,28.41,-4.25,-0.86,3.02,-0.82,6.34,
2.443,28.01,-2.81,-2.05,3.02,-0.82,6.34,
2.443,27.64,-1.31,-2.85,3.02,-0.82,6.34,
2.444,27.64,-1.31,-2.85,2.80,-0.45,5.99,
2.444,27.37,0.12,-3.28,2.80,-0.45,5.99,
2.444,27.37,0.12,-3.28,2.54,-0.04,5.65,
2.445,27.37,0.12,-3.28,2.26,0.39,5.31,
2.445,27.10,1.47,-3.44,2.26,0.39,5.31,
2.446,26.89,2.51,-3.46,2.26,0.39,5.31,
2.446,26.89,2.51,-3.46,1.98,0.81,4.97,
2.45,26.67,3.44,-3.36,1.98,0.81,4.97,
2.451,26.67,3.44,-3.36,1.71,1.21,4.63,
2.457,26.67,3.44,-3.36,1.46,1.56,4.29,
2.458,26.42,4.20,-3.21,1.46,1.56,4.29,
2.46,26.20,4.83,-3.00,1.46,1.56,4.29,
2.461,26.20,4.83,-3.00,1.23,1.86,3.95,
2.492,25.84,5.42,-2.80,1.23,1.86,3.95,
2.492,25.84,5.42,-2.80,1.03,2.09,3.59,
2.493,25.32,6.03,-2.62,1.03,2.09,3.59,
2.493,25.32,6.03,-2.62,0.87,2.27,3.23,
2.494,24.72,6.53,-2.40,0.87,2.27,3.23,
2.494,24.72,6.53,-2.40,0.73,2.40,2.87,
2.494,24.03,7.03,-2.24,0.73,2.40,2.87,
2.495,24.03,7.03,-2.24,0.61,2.50,2.52,
2.495,24.03,7.03,-2.24,0.52,2.55,2.17,
2.496,23.38,7.36,-2.17,0.52,2.55,2.17,
2.496,23.38,7.36,-2.17,0.45,2.58,1.85,
2.496,22.73,7.53,-2.13,0.45,2.58,1.85,
2.497,22.73,7.53,-2.13,0.39,2.58,1.55,
2.497,22.09,7.57,-2.14,0.39,2.58,1.55,
2.499,22.09,7.57,-2.14,0.33,2.57,1.26,
2.5,21.46,7.48,-2.09,0.33,2.57,1.26,
2.504,21.46,7.48,-2.09,0.28,2.55,0.99,
2.505,20.79,7.41,-2.03,0.28,2.55,0.99,
2.513,20.06,7.38,-1.99,0.28,2.55,0.99,
2.514,20.06,7.38,-1.99,0.23,2.53,0.73,
2.515,20.06,7.38,-1.99,0.18,2.50,0.49,
2.515,19.27,7.31,-1.97,0.18,2.50,0.49,
2.521,19.27,7.31,-1.97,0.14,2.48,0.26,
2.522,18.48,7.16,-1.98,0.14,2.48,0.26,
2.549,18.48,7.16,-1.98,0.11,2.45,0.07,
2.55,17.58,6.98,-1.96,0.11,2.45,0.07,
2.55,16.66,6.80,-2.06,0.11,2.45,0.07,
2.55,16.66,6.80,-2.06,0.07,2.42,-0.10,
2.551,15.82,6.66,-2.24,0.07,2.42,-0.10,
2.551,15.82,6.66,-2.24,0.03,2.39,-0.24,
2.551,15.02,6.59,-2.43,0.03,2.39,-0.24,
2.552,15.02,6.59,-2.43,-0.02,2.35,-0.34,
2.552,14.28,6.57,-2.60,-0.02,2.35,-0.34,
2.553,14.28,6.57,-2.60,-0.08,2.30,-0.42,
2.553,14.28,6.57,-2.60,-0.15,2.24,-0.48,
2.553,13.62,6.63,-2.77,-0.15,2.24,-0.48,
2.554,13.00,6.64,-2.88,-0.15,2.24,-0.48,
2.554,13.00,6.64,-2.88,-0.24,2.19,-0.53,
2.558,12.48,6.67,-3.00,-0.24,2.19,-0.53,
2.559,12.48,6.67,-3.00,-0.34,2.13,-0.56,
2.563,11.99,6.69,-3.01,-0.34,2.13,-0.56,
2.563,11.99,6.69,-3.01,-0.45,2.06,-0.57,
2.567,11.56,6.74,-2.95,-0.45,2.06,-0.57,
2.568,11.56,6.74,-2.95,-0.57,2.00,-0.58,
2.572,11.18,6.79,-2.84,-0.57,2.00,-0.58,
2.573,11.18,6.79,-2.84,-0.70,1.94,-0.58,
2.578,10.92,6.91,-2.70,-0.70,1.94,-0.58,
2.579,10.92,6.91,-2.70,-0.82,1.87,-0.57,
2.582,10.92,6.91,-2.70,-0.94,1.81,-0.56,
2.583,10.72,7.08,-2.48,-0.94,1.81,-0.56,
2.587,10.65,7.23,-2.16,-0.94,1.81,-0.56,
2.588,10.65,7.23,-2.16,-1.06,1.73,-0.56,
2.598,10.65,7.23,-2.16,-1.17,1.65,-0.56,
2.599,10.58,7.28,-1.85,-1.17,1.65,-0.56,
2.6,10.58,7.28,-1.85,-1.26,1.56,-0.57,
2.601,10.63,7.28,-1.48,-1.26,1.56,-0.57,
2.601,10.63,7.28,-1.48,-1.34,1.46,-0.58,
2.602,10.70,7.27,-1.08,-1.34,1.46,-0.58,
2.606,10.70,7.27,-1.08,-1.40,1.37,-0.60,
2.639,10.74,7.25,-0.67,-1.40,1.37,-0.60,
2.64,10.74,7.25,-0.67,-1.44,1.27,-0.63,
2.641,10.80,7.23,-0.21,-1.44,1.27,-0.63,
2.641,10.80,7.23,-0.21,-1.47,1.16,-0.67,
2.641,10.83,7.20,0.24,-1.47,1.16,-0.67,
2.642,10.83,7.20,0.24,-1.47,1.06,-0.70,
2.642,10.84,7.15,0.73,-1.47,1.06,-0.70,
2.643,10.84,7.15,0.73,-1.46,0.94,-0.73,
2.643,10.89,7.14,1.18,-1.46,0.94,-0.73,
2.643,10.90,7.08,1.63,-1.46,0.94,-0.73,
2.644,10.90,7.08,1.63,-1.42,0.82,-0.77,
2.644,10.90,7.08,1.63,-1.36,0.70,-0.80,
2.644,10.93,7.04,2.07,-1.36,0.70,-0.80,
2.645,10.93,7.04,2.07,-1.29,0.57,-0.84,
2.645,10.91,7.02,2.45,-1.29,0.57,-0.84,
2.646,10.91,7.02,2.45,-1.20,0.43,-0.86,
2.646,10.87,7.02,2.83,-1.20,0.43,-0.86,
2.65,10.87,7.02,2.83,-1.10,0.29,-0.89,
2.651,10.88,6.98,3.22,-1.10,0.29,-0.89,
2.655,10.88,6.98,3.22,-0.99,0.13,-0.91,
2.655,10.84,6.91,3.56,-0.99,0.13,-0.91,
2.66,10.84,6.91,3.56,-0.86,-0.03,-0.91,
2.661,10.81,6.85,3.92,-0.86,-0.03,-0.91,
2.665,10.81,6.85,3.92,-0.73,-0.19,-0.91,
2.665,10.77,6.84,4.23,-0.73,-0.19,-0.91,
2.669,10.77,6.84,4.23,-0.59,-0.35,-0.90,
2.67,10.75,6.84,4.55,-0.59,-0.35,-0.90,
2.675,10.76,6.90,4.85,-0.59,-0.35,-0.90,
2.676,10.76,6.90,4.85,-0.44,-0.50,-0.88,
2.68,10.85,7.01,5.08,-0.44,-0.50,-0.88,
2.681,10.85,7.01,5.08,-0.29,-0.66,-0.86,
2.685,10.97,7.09,5.24,-0.29,-0.66,-0.86,
2.685,10.97,7.09,5.24,-0.13,-0.82,-0.85,
2.689,11.09,7.18,5.31,-0.13,-0.82,-0.85,
2.69,11.09,7.18,5.31,0.02,-0.98,-0.83,
2.694,11.09,7.18,5.31,0.17,-1.14,-0.83,
2.695,11.27,7.22,5.39,0.17,-1.14,-0.83,
2.699,11.27,7.22,5.39,0.32,-1.31,-0.83,
2.7,11.52,7.23,5.37,0.32,-1.31,-0.83,
2.704,11.86,7.16,5.32,0.32,-1.31,-0.83,
2.705,11.86,7.16,5.32,0.46,-1.49,-0.85,
2.746,11.86,7.16,5.32,0.58,-1.67,-0.88,
2.747,12.33,7.05,5.30,0.58,-1.67,-0.88,
2.748,12.33,7.05,5.30,0.70,-1.86,-0.92,
2.748,12.96,6.76,5.16,0.70,-1.86,-0.92,
2.749,12.96,6.76,5.16,0.80,-2.06,-0.98,
2.749,13.70,6.36,4.98,0.80,-2.06,-0.98,
2.75,13.70,6.36,4.98,0.89,-2.28,-1.07,
2.751,14.50,5.79,4.73,0.89,-2.28,-1.07,
2.751,15.41,5.11,4.48,0.89,-2.28,-1.07,
2.752,15.41,5.11,4.48,0.95,-2.51,-1.18,
2.752,15.41,5.11,4.48,1.00,-2.77,-1.31,
2.753,16.40,4.33,4.29,1.00,-2.77,-1.31,
2.754,16.40,4.33,4.29,1.03,-3.02,-1.46,
2.754,17.35,3.49,4.23,1.03,-3.02,-1.46,
2.755,17.35,3.49,4.23,1.05,-3.27,-1.62,
2.755,18.30,2.61,4.18,1.05,-3.27,-1.62,
2.756,18.30,2.61,4.18,1.05,-3.49,-1.81,
2.756,19.08,1.80,4.14,1.05,-3.49,-1.81,
2.757,19.08,1.80,4.14,1.04,-3.70,-1.99,
2.757,19.68,0.97,4.11,1.04,-3.70,-1.99,
2.758,19.68,0.97,4.11,1.02,-3.87,-2.18,
2.758,20.21,0.28,4.08,1.02,-3.87,-2.18,
2.769,20.62,-0.35,4.15,1.02,-3.87,-2.18,
2.769,20.62,-0.35,4.15,0.97,-4.01,-2.37,
2.77,20.62,-0.35,4.15,0.92,-4.11,-2.57,
2.77,21.09,-0.85,4.40,0.92,-4.11,-2.57,
2.772,21.42,-1.23,4.76,0.92,-4.11,-2.57,
2.777,21.60,-1.53,5.19,0.92,-4.11,-2.57,
2.778,21.60,-1.53,5.19,0.87,-4.18,-2.78,
2.778,21.60,-1.53,5.19,0.82,-4.21,-3.00,
2.782,21.61,-1.79,5.60,0.82,-4.21,-3.00,
2.782,21.61,-1.79,5.60,0.78,-4.20,-3.24,
2.787,21.61,-1.79,5.60,0.75,-4.15,-3.49,
2.787,21.56,-2.10,5.85,0.75,-4.15,-3.49,
2.808,21.56,-2.10,5.85,0.71,-4.10,-3.75,
2.809,21.38,-2.46,5.97,0.71,-4.10,-3.75,
2.809,21.16,-2.90,5.97,0.71,-4.10,-3.75,
2.809,21.16,-2.90,5.97,0.67,-4.03,-4.03,
2.81,20.89,-3.42,5.95,0.67,-4.03,-4.03,
2.81,20.89,-3.42,5.95,0.61,-3.96,-4.32,
2.811,20.68,-3.97,5.91,0.61,-3.96,-4.32,
2.811,20.68,-3.97,5.91,0.54,-3.89,-4.62,
2.812,20.68,-3.97,5.91,0.46,-3.82,-4.92,
2.813,20.54,-4.65,5.88,0.46,-3.82,-4.92,
2.816,20.54,-5.52,5.85,0.46,-3.82,-4.92,
2.816,20.54,-5.52,5.85,0.36,-3.76,-5.22,
2.821,20.56,-6.56,5.76,0.36,-3.76,-5.22,
2.822,20.56,-6.56,5.76,0.26,-3.70,-5.53,
2.826,20.56,-6.56,5.76,0.14,-3.65,-5.85,
2.827,20.69,-7.74,5.68,0.14,-3.65,-5.85,
2.831,20.88,-9.04,5.62,0.14,-3.65,-5.85,
2.832,20.88,-9.04,5.62,0.01,-3.59,-6.16,
2.836,21.16,-10.45,5.49,0.01,-3.59,-6.16,
2.837,21.16,-10.45,5.49,-0.14,-3.55,-6.47,
2.853,21.16,-10.45,5.49,-0.29,-3.52,-6.79,
2.855,21.47,-11.90,5.33,-0.29,-3.52,-6.79,
2.855,21.47,-11.90,5.33,-0.46,-3.51,-7.10,
2.856,21.77,-13.51,5.17,-0.46,-3.51,-7.10,
2.857,22.02,-15.11,5.05,-0.46,-3.51,-7.10,
2.858,22.02,-15.11,5.05,-0.65,-3.50,-7.41,
2.859,22.02,-15.11,5.05,-0.86,-3.50,-7.70,
2.86,22.33,-16.73,5.00,-0.86,-3.50,-7.70,
2.861,22.33,-16.73,5.00,-1.07,-3.47,-7.99,
2.862,22.59,-18.43,4.97,-1.07,-3.47,-7.99,
2.9,22.59,-18.43,4.97,-1.29,-3.42,-8.26,
2.901,22.70,-20.07,5.03,-1.29,-3.42,-8.26,
2.901,22.61,-21.62,5.16,-1.29,-3.42,-8.26,
2.902,22.61,-21.62,5.16,-1.50,-3.32,-8.52,
2.903,22.61,-21.62,5.16,-1.72,-3.19,-8.75,
2.903,22.41,-23.16,5.29,-1.72,-3.19,-8.75,
2.904,22.09,-24.71,5.51,-1.72,-3.19,-8.75,
2.905,22.09,-24.71,5.51,-1.92,-3.01,-8.95,
2.906,21.46,-26.15,5.80,-1.92,-3.01,-8.95,
2.906,21.46,-26.15,5.80,-2.11,-2.79,-9.11,
2.907,21.46,-26.15,5.80,-2.28,-2.51,-9.24,
2.908,20.54,-27.38,6.26,-2.28,-2.51,-9.24,
2.908,20.54,-27.38,6.26,-2.43,-2.15,-9.32,
2.909,19.28,-28.22,6.81,-2.43,-2.15,-9.32,
2.91,17.73,-28.73,7.28,-2.43,-2.15,-9.32,
2.911,17.73,-28.73,7.28,-2.53,-1.75,-9.37,
2.911,17.73,-28.73,7.28,-2.57,-1.32,-9.37,
2.912,15.99,-28.90,7.87,-2.57,-1.32,-9.37,
2.912,15.99,-28.90,7.87,-2.57,-0.88,-9.33,
2.913,14.23,-28.87,8.20,-2.57,-0.88,-9.33,
2.914,14.23,-28.87,8.20,-2.50,-0.46,-9.25,
2.914,12.60,-28.71,8.37,-2.50,-0.46,-9.25,
2.919,11.06,-28.42,8.43,-2.50,-0.46,-9.25,
2.92,11.06,-28.42,8.43,-2.40,-0.06,-9.12,
2.923,9.68,-27.98,8.40,-2.40,-0.06,-9.12,
2.924,9.68,-27.98,8.40,-2.25,0.29,-8.96,
2.934,9.68,-27.98,8.40,-2.07,0.60,-8.78,
2.934,8.42,-27.48,8.28,-2.07,0.60,-8.78,
2.935,8.42,-27.48,8.28,-1.87,0.87,-8.58,
2.936,7.25,-26.94,8.16,-1.87,0.87,-8.58,
2.938,6.10,-26.43,7.96,-1.87,0.87,-8.58,
2.939,6.10,-26.43,7.96,-1.65,1.09,-8.36,
2.972,6.10,-26.43,7.96,-1.40,1.27,-8.12,
2.973,5.10,-26.00,7.64,-1.40,1.27,-8.12,
2.974,4.26,-25.71,7.15,-1.40,1.27,-8.12,
2.975,4.26,-25.71,7.15,-1.15,1.41,-7.86,
3.008,3.60,-25.42,6.51,-1.15,1.41,-7.86,
3.009,3.60,-25.42,6.51,-0.89,1.51,-7.58,
3.009,3.02,-24.98,5.95,-0.89,1.51,-7.58,
3.01,3.02,-24.98,5.95,-0.65,1.57,-7.28,
3.01,3.02,-24.98,5.95,-0.43,1.60,-6.98,
3.011,2.56,-24.41,5.58,-0.43,1.60,-6.98,
3.011,2.14,-23.63,5.26,-0.43,1.60,-6.98,
3.012,2.14,-23.63,5.26,-0.21,1.61,-6.69,
3.012,1.79,-22.79,4.85,-0.21,1.61,-6.69,
3.013,1.79,-22.79,4.85,0.01,1.58,-6.42,
3.013,1.79,-22.79,4.85,0.22,1.52,-6.17,
3.014,1.54,-21.96,4.48,0.22,1.52,-6.17,
3.014,1.54,-21.96,4.48,0.42,1.42,-5.94,
3.015,1.44,-21.17,4.13,0.42,1.42,-5.94,
3.015,1.40,-20.49,3.82,0.42,1.42,-5.94,
3.015,1.40,-20.49,3.82,0.61,1.29,-5.74,
3.016,1.40,-20.49,3.82,0.79,1.12,-5.58,
3.016,1.45,-19.94,3.51,0.79,1.12,-5.58,
3.017,1.45,-19.45,3.30,0.79,1.12,-5.58,
3.017,1.45,-19.45,3.30,0.96,0.94,-5.44,
3.017,1.27,-18.96,3.18,0.96,0.94,-5.44,
3.018,1.27,-18.96,3.18,1.12,0.77,-5.34,
3.018,1.27,-18.96,3.18,1.26,0.62,-5.26,
3.019,0.93,-18.42,3.09,1.26,0.62,-5.26,
3.019,0.93,-18.42,3.09,1.40,0.47,-5.20,
3.019,0.48,-17.84,3.02,1.40,0.47,-5.20,
3.02,0.48,-17.84,3.02,1.52,0.32,-5.15,
3.02,-0.02,-17.31,2.90,1.52,0.32,-5.15,
3.022,-0.02,-17.31,2.90,1.63,0.18,-5.10,
3.023,-0.50,-16.94,2.74,1.63,0.18,-5.10,
3.028,-0.50,-16.94,2.74,1.73,0.04,-5.06,
3.029,-0.95,-16.69,2.51,1.73,0.04,-5.06,
3.031,-0.95,-16.69,2.51,1.81,-0.11,-5.01,
3.031,-1.35,-16.56,2.21,1.81,-0.11,-5.01,
3.036,-1.35,-16.56,2.21,1.86,-0.25,-4.95,
3.037,-1.70,-16.50,1.84,1.86,-0.25,-4.95,
3.047,-1.70,-16.50,1.84,1.89,-0.37,-4.89,
3.048,-2.00,-16.58,1.53,1.89,-0.37,-4.89,
3.048,-2.00,-16.58,1.53,1.89,-0.48,-4.82,
3.048,-2.21,-16.71,1.18,1.89,-0.48,-4.82,
3.051,-2.21,-16.71,1.18,1.86,-0.56,-4.74,
3.052,-2.39,-16.82,0.91,1.86,-0.56,-4.74,
3.055,-2.67,-16.90,0.73,1.86,-0.56,-4.74,
3.055,-2.67,-16.90,0.73,1.81,-0.61,-4.65,
3.077,-2.67,-16.90,0.73,1.75,-0.64,-4.56,
3.078,-3.00,-16.85,0.66,1.75,-0.64,-4.56,
3.078,-3.44,-16.76,0.63,1.75,-0.64,-4.56,
3.079,-3.44,-16.76,0.63,1.67,-0.63,-4.45,
3.079,-3.89,-16.54,0.63,1.67,-0.63,-4.45,
3.08,-3.89,-16.54,0.63,1.59,-0.61,-4.33,
3.08,-4.36,-16.30,0.68,1.59,-0.61,-4.33,
3.081,-4.36,-16.30,0.68,1.51,-0.59,-4.21,
3.081,-4.36,-16.30,0.68,1.42,-0.57,-4.07,
3.081,-4.77,-16.03,0.74,1.42,-0.57,-4.07,
3.085,-4.77,-16.03,0.74,1.35,-0.56,-3.92,
3.085,-5.19,-15.73,0.83,1.35,-0.56,-3.92,
3.09,-5.19,-15.73,0.83,1.27,-0.55,-3.77,
3.09,-5.58,-15.49,0.93,1.27,-0.55,-3.77,
3.094,-5.88,-15.26,1.06,1.27,-0.55,-3.77,
3.095,-5.88,-15.26,1.06,1.21,-0.54,-3.61,
3.099,-6.02,-15.06,1.15,1.21,-0.54,-3.61,
3.1,-6.02,-15.06,1.15,1.15,-0.55,-3.45,
3.103,-6.12,-14.89,1.22,1.15,-0.55,-3.45,
3.104,-6.12,-14.89,1.22,1.10,-0.57,-3.29,
3.109,-6.12,-14.89,1.22,1.06,-0.60,-3.13,
3.11,-6.11,-14.72,1.33,1.06,-0.60,-3.13,
3.114,-6.06,-14.61,1.41,1.06,-0.60,-3.13,
3.115,-6.06,-14.61,1.41,1.03,-0.65,-2.98,
3.119,-5.94,-14.53,1.53,1.03,-0.65,-2.98,
3.119,-5.94,-14.53,1.53,1.00,-0.71,-2.84,
3.124,-5.74,-14.42,1.69,1.00,-0.71,-2.84,
3.125,-5.74,-14.42,1.69,0.98,-0.77,-2.70,
3.128,-5.49,-14.34,1.82,0.98,-0.77,-2.70,
3.129,-5.49,-14.34,1.82,0.96,-0.81,-2.58,
3.133,-5.21,-14.29,1.95,0.96,-0.81,-2.58,
3.135,-5.21,-14.29,1.95,0.95,-0.84,-2.46,
3.138,-4.94,-14.20,2.07,0.95,-0.84,-2.46,
3.139,-4.94,-14.20,2.07,0.94,-0.86,-2.37,
3.144,-4.79,-14.16,2.16,0.94,-0.86,-2.37,
3.145,-4.79,-14.16,2.16,0.93,-0.87,-2.28,
3.149,-4.78,-14.08,2.22,0.93,-0.87,-2.28,
3.149,-4.78,-14.08,2.22,0.92,-0.86,-2.21,
3.153,-4.88,-13.95,2.30,0.92,-0.86,-2.21,
3.155,-4.88,-13.95,2.30,0.91,-0.84,-2.15,
3.169,-5.05,-13.76,2.37,0.91,-0.84,-2.15,
3.171,-5.05,-13.76,2.37,0.91,-0.82,-2.10,
3.172,-5.05,-13.76,2.37,0.90,-0.79,-2.04,
3.172,-5.27,-13.62,2.43,0.90,-0.79,-2.04,
3.173,-5.27,-13.62,2.43,0.89,-0.77,-1.99,
3.174,-5.51,-13.56,2.48,0.89,-0.77,-1.99,
3.175,-5.51,-13.56,2.48,0.87,-0.74,-1.93,
3.176,-5.72,-13.53,2.43,0.87,-0.74,-1.93,
3.226,-5.72,-13.53,2.43,0.86,-0.70,-1.86,
3.227,-5.96,-13.51,2.36,0.86,-0.70,-1.86,
3.228,-5.96,-13.51,2.36,0.84,-0.65,-1.79,
3.229,-6.21,-13.47,2.24,0.84,-0.65,-1.79,
3.229,-6.21,-13.47,2.24,0.80,-0.59,-1.72,
3.23,-6.44,-13.41,2.09,0.80,-0.59,-1.72,
3.231,-6.69,-13.40,1.96,0.80,-0.59,-1.72,
3.231,-6.69,-13.40,1.96,0.75,-0.51,-1.65,
3.274,-6.69,-13.40,1.96,0.69,-0.43,-1.57,
3.274,-6.94,-13.39,1.81,0.69,-0.43,-1.57,
3.275,-6.94,-13.39,1.81,0.62,-0.35,-1.49,
3.275,-7.20,-13.42,1.66,0.62,-0.35,-1.49,
3.276,-7.51,-13.47,1.53,0.62,-0.35,-1.49,
3.276,-7.51,-13.47,1.53,0.55,-0.27,-1.39,
3.277,-7.51,-13.47,1.53,0.47,-0.18,-1.29,
3.277,-7.83,-13.55,1.37,0.47,-0.18,-1.29,
3.278,-8.16,-13.62,1.22,0.47,-0.18,-1.29,
3.279,-8.16,-13.62,1.22,0.38,-0.10,-1.18,
3.279,-8.16,-13.62,1.22,0.29,-0.02,-1.05,
3.28,-8.49,-13.67,1.07,0.29,-0.02,-1.05,
3.28,-8.49,-13.67,1.07,0.19,0.07,-0.91,
3.281,-8.88,-13.74,0.96,0.19,0.07,-0.91,
3.281,-8.88,-13.74,0.96,0.08,0.14,-0.75,
3.282,-9.19,-13.72,0.89,0.08,0.14,-0.75,
3.282,-9.19,-13.72,0.89,-0.02,0.21,-0.58,
3.283,-9.46,-13.69,0.88,-0.02,0.21,-0.58,
3.284,-9.46,-13.69,0.88,-0.12,0.27,-0.40,
3.284,-9.71,-13.69,0.88,-0.12,0.27,-0.40,
3.285,-9.71,-13.69,0.88,-0.22,0.32,-0.20,
3.285,-9.92,-13.65,0.93,-0.22,0.32,-0.20,
3.286,-10.05,-13.63,1.08,-0.22,0.32,-0.20,
3.286,-10.05,-13.63,1.08,-0.31,0.35,-0.00,
3.287,-10.05,-13.63,1.08,-0.38,0.36,0.21,
3.288,-10.10,-13.60,1.19,-0.38,0.36,0.21,
3.288,-10.02,-13.61,1.40,-0.38,0.36,0.21,
3.289,-10.02,-13.61,1.40,-0.45,0.35,0.42,
3.289,-9.85,-13.63,1.62,-0.45,0.35,0.42,
3.29,-9.85,-13.63,1.62,-0.50,0.33,0.63,
3.29,-9.64,-13.67,1.86,-0.50,0.33,0.63,
3.291,-9.64,-13.67,1.86,-0.53,0.30,0.84,
3.291,-9.64,-13.67,1.86,-0.54,0.25,1.04,
3.292,-9.38,-13.72,2.12,-0.54,0.25,1.04,
3.292,-9.38,-13.72,2.12,-0.55,0.21,1.24,
3.292,-9.09,-13.71,2.45,-0.55,0.21,1.24,
3.293,-9.09,-13.71,2.45,-0.53,0.15,1.42,
3.294,-8.78,-13.74,2.67,-0.53,0.15,1.42,
3.294,-8.42,-13.77,2.92,-0.53,0.15,1.42,
3.294,-8.42,-13.77,2.92,-0.50,0.09,1.60,
3.295,-8.42,-13.77,2.92,-0.45,0.02,1.77,
3.295,-8.05,-13.80,3.23,-0.45,0.02,1.77,
3.3,-8.05,-13.80,3.23,-0.39,-0.04,1.92,
3.3,-7.70,-13.87,3.48,-0.39,-0.04,1.92,
3.304,-7.70,-13.87,3.48,-0.31,-0.09,2.08,
3.305,-7.32,-13.95,3.67,-0.31,-0.09,2.08,
3.316,-6.98,-14.06,3.73,-0.31,-0.09,2.08,
3.317,-6.98,-14.06,3.73,-0.22,-0.13,2.22,
3.317,-6.98,-14.06,3.73,-0.14,-0.15,2.37,
3.318,-6.71,-14.24,3.63,-0.14,-0.15,2.37,
3.318,-6.71,-14.24,3.63,-0.06,-0.16,2.52,
3.319,-6.40,-14.45,3.53,-0.06,-0.16,2.52,
3.323,-6.40,-14.45,3.53,0.02,-0.16,2.67,
3.324,-6.12,-14.74,3.36,0.02,-0.16,2.67,
3.354,-5.90,-15.06,3.13,0.02,-0.16,2.67,
3.355,-5.90,-15.06,3.13,0.08,-0.14,2.83,
3.355,-5.71,-15.37,2.81,0.08,-0.14,2.83,
3.355,-5.71,-15.37,2.81,0.13,-0.10,2.98,
3.356,-5.71,-15.37,2.81,0.15,-0.07,3.15,
3.356,-5.46,-15.66,2.40,0.15,-0.07,3.15,
3.357,-5.46,-15.66,2.40,0.15,-0.02,3.31,
3.357,-5.21,-15.99,1.89,0.15,-0.02,3.31,
3.357,-4.99,-16.23,1.38,0.15,-0.02,3.31,
3.358,-4.99,-16.23,1.38,0.12,0.05,3.48,
3.358,-4.80,-16.47,0.85,0.12,0.05,3.48,
3.359,-4.80,-16.47,0.85,0.05,0.14,3.65,
3.359,-4.80,-16.47,0.85,-0.06,0.24,3.82,
3.359,-4.58,-16.61,0.34,-0.06,0.24,3.82,
3.363,-4.31,-16.83,-0.16,-0.06,0.24,3.82,
3.364,-4.31,-16.83,-0.16,-0.22,0.36,3.99,
3.367,-3.90,-17.15,-0.59,-0.22,0.36,3.99,
3.368,-3.90,-17.15,-0.59,-0.41,0.48,4.17,
3.372,-3.34,-17.55,-0.88,-0.41,0.48,4.17,
3.372,-3.34,-17.55,-0.88,-0.64,0.60,4.34,
3.382,-2.69,-18.07,-1.07,-0.64,0.60,4.34,
3.382,-2.69,-18.07,-1.07,-0.90,0.72,4.51,
3.383,-2.69,-18.07,-1.07,-1.18,0.83,4.68,
3.384,-2.02,-18.64,-1.15,-1.18,0.83,4.68,
3.387,-1.41,-19.27,-1.15,-1.18,0.83,4.68,
3.387,-1.41,-19.27,-1.15,-1.48,0.95,4.84,
3.415,-1.41,-19.27,-1.15,-1.78,1.07,5.00,
3.416,-0.97,-19.90,-1.06,-1.78,1.07,5.00,
3.416,-0.63,-20.46,-0.92,-1.78,1.07,5.00,
3.416,-0.63,-20.46,-0.92,-2.09,1.19,5.17,
3.417,-0.30,-20.97,-0.76,-2.09,1.19,5.17,
3.417,-0.30,-20.97,-0.76,-2.41,1.29,5.35,
3.418,0.00,-21.55,-0.56,-2.41,1.29,5.35,
3.418,0.00,-21.55,-0.56,-2.73,1.36,5.54,
3.418,0.37,-22.18,-0.33,-2.73,1.36,5.54,
3.418,0.37,-22.18,-0.33,-3.04,1.41,5.76,
3.419,0.88,-22.85,0.07,-3.04,1.41,5.76,
3.419,0.88,-22.85,0.07,-3.34,1.44,5.99,
3.421,0.88,-22.85,0.07,-3.63,1.45,6.24,
3.421,1.49,-23.58,0.52,-3.63,1.45,6.24,
3.426,1.49,-23.58,0.52,-3.90,1.46,6.51,
3.427,2.20,-24.28,1.00,-3.90,1.46,6.51,
3.431,3.01,-25.04,1.48,-3.90,1.46,6.51,
3.432,3.01,-25.04,1.48,-4.15,1.45,6.78,
3.436,3.88,-25.74,2.01,-4.15,1.45,6.78,
3.436,3.88,-25.74,2.01,-4.37,1.43,7.06,
3.466,3.88,-25.74,2.01,-4.58,1.41,7.34,
3.467,4.82,-26.44,2.53,-4.58,1.41,7.34,
3.467,4.82,-26.44,2.53,-4.75,1.38,7.61,
3.468,5.88,-27.07,3.11,-4.75,1.38,7.61,
3.468,7.03,-27.56,3.74,-4.75,1.38,7.61,
3.469,7.03,-27.56,3.74,-4.90,1.35,7.87,
3.469,8.18,-27.91,4.47,-4.90,1.35,7.87,
3.47,8.18,-27.91,4.47,-5.01,1.32,8.12,
3.47,8.18,-27.91,4.47,-5.09,1.29,8.34,
3.471,9.31,-28.20,5.10,-5.09,1.29,8.34,
3.471,9.31,-28.20,5.10,-5.14,1.26,8.54,
3.471,10.48,-28.52,5.56,-5.14,1.26,8.54,
3.472,11.75,-28.79,5.98,-5.14,1.26,8.54,
3.473,11.75,-28.79,5.98,-5.16,1.23,8.72,
3.485,11.75,-28.79,5.98,-5.17,1.19,8.87,
3.486,13.03,-29.05,6.30,-5.17,1.19,8.87,
3.486,13.03,-29.05,6.30,-5.15,1.16,9.00,
3.487,14.19,-29.30,6.56,-5.15,1.16,9.00,
3.487,15.43,-29.43,6.92,-5.15,1.16,9.00,
3.488,15.43,-29.43,6.92,-5.12,1.14,9.10,
3.518,16.62,-29.32,7.30,-5.12,1.14,9.10,
3.519,16.62,-29.32,7.30,-5.07,1.13,9.19,
3.52,16.62,-29.32,7.30,-5.01,1.12,9.25,
3.52,17.79,-29.04,7.73,-5.01,1.12,9.25,
3.52,17.79,-29.04,7.73,-4.91,1.11,9.28,
3.521,18.89,-28.67,8.20,-4.91,1.11,9.28,
3.521,18.89,-28.67,8.20,-4.79,1.08,9.28,
3.522,19.91,-28.19,8.84,-4.79,1.08,9.28,
3.522,19.91,-28.19,8.84,-4.62,1.06,9.27,
3.523,20.68,-27.55,9.61,-4.62,1.06,9.27,
3.523,20.68,-27.55,9.61,-4.39,1.02,9.25,
3.523,21.28,-26.72,10.37,-4.39,1.02,9.25,
3.524,21.98,-25.82,11.06,-4.39,1.02,9.25,
3.525,21.98,-25.82,11.06,-4.11,0.98,9.22,
3.525,22.77,-24.66,11.65,-4.11,0.98,9.22,
3.526,22.77,-24.66,11.65,-3.78,0.90,9.19,
3.533,22.77,-24.66,11.65,-3.39,0.81,9.14,
3.534,23.61,-23.28,12.11,-3.39,0.81,9.14,
3.535,23.61,-23.28,12.11,-2.96,0.69,9.05,
3.536,24.43,-21.93,12.30,-2.96,0.69,9.05,
3.538,25.17,-20.60,12.33,-2.96,0.69,9.05,
3.539,25.17,-20.60,12.33,-2.50,0.54,8.92,
3.566,25.82,-19.22,12.18,-2.50,0.54,8.92,
3.567,25.82,-19.22,12.18,-2.03,0.37,8.76,
3.568,26.44,-17.77,11.88,-2.03,0.37,8.76,
3.568,26.44,-17.77,11.88,-1.54,0.18,8.57,
3.569,27.03,-16.29,11.35,-1.54,0.18,8.57,
3.569,27.03,-16.29,11.35,-1.06,-0.03,8.33,
3.569,27.51,-14.77,10.70,-1.06,-0.03,8.33,
3.57,27.51,-14.77,10.70,-0.60,-0.24,8.07,
3.571,27.77,-13.21,9.92,-0.60,-0.24,8.07,
3.571,27.77,-13.21,9.92,-0.17,-0.45,7.76,
3.572,27.77,-13.21,9.92,0.22,-0.66,7.42,
3.572,27.76,-11.66,9.09,0.22,-0.66,7.42,
3.573,27.76,-11.66,9.09,0.56,-0.87,7.05,
3.573,27.51,-10.27,8.28,0.56,-0.87,7.05,
3.58,27.51,-10.27,8.28,0.85,-1.07,6.67,
3.582,27.05,-8.97,7.42,0.85,-1.07,6.67,
3.582,26.27,-7.85,6.45,0.85,-1.07,6.67,
3.582,26.27,-7.85,6.45,1.09,-1.25,6.30,
3.587,25.27,-6.87,5.61,1.09,-1.25,6.30,
3.588,25.27,-6.87,5.61,1.26,-1.37,5.94,
3.592,25.27,-6.87,5.61,1.36,-1.42,5.62,
3.592,24.10,-5.93,4.86,1.36,-1.42,5.62,
3.601,24.10,-5.93,4.86,1.41,-1.43,5.35,
3.604,23.06,-5.06,4.21,1.41,-1.43,5.35,
3.604,23.06,-5.06,4.21,1.40,-1.41,5.13,
3.604,22.29,-4.11,3.44,1.40,-1.41,5.13,
3.606,21.54,-3.14,2.76,1.40,-1.41,5.13,
3.607,21.54,-3.14,2.76,1.33,-1.37,4.92,
3.631,20.59,-2.19,2.23,1.33,-1.37,4.92,
3.632,20.59,-2.19,2.23,1.20,-1.31,4.74,
3.633,20.59,-2.19,2.23,1.02,-1.19,4.57,
3.633,19.67,-1.34,1.79,1.02,-1.19,4.57,
3.633,18.97,-0.54,1.50,1.02,-1.19,4.57,
3.634,18.97,-0.54,1.50,0.80,-1.00,4.44,
3.634,18.97,-0.54,1.50,0.55,-0.76,4.33,
3.634,18.57,0.22,1.34,0.55,-0.76,4.33,
3.634,18.57,0.22,1.34,0.27,-0.50,4.23,
3.635,18.36,0.84,1.42,0.27,-0.50,4.23,
3.636,18.32,1.32,1.59,0.27,-0.50,4.23,
3.636,18.32,1.32,1.59,-0.02,-0.21,4.13,
3.64,18.32,1.32,1.59,-0.31,0.10,4.01,
3.641,18.35,1.68,1.91,-0.31,0.10,4.01,
3.645,18.45,1.94,2.32,-0.31,0.10,4.01,
3.646,18.45,1.94,2.32,-0.59,0.42,3.87,
3.651,18.55,2.13,2.88,-0.59,0.42,3.87,
3.651,18.55,2.13,2.88,-0.84,0.75,3.71,
3.655,18.56,2.28,3.45,-0.84,0.75,3.71,
3.656,18.56,2.28,3.45,-1.07,1.08,3.52,
3.66,18.56,2.28,3.45,-1.25,1.40,3.32,
3.661,18.50,2.51,4.02,-1.25,1.40,3.32,
3.665,18.26,2.63,4.53,-1.25,1.40,3.32,
3.666,18.26,2.63,4.53,-1.40,1.71,3.11,
3.67,17.92,2.72,4.89,-1.40,1.71,3.11,
3.67,17.92,2.72,4.89,-1.51,2.00,2.90,
3.674,17.49,2.76,5.19,-1.51,2.00,2.90,
3.675,17.49,2.76,5.19,-1.58,2.27,2.68,
3.68,17.01,2.81,5.35,-1.58,2.27,2.68,
3.68,17.01,2.81,5.35,-1.62,2.52,2.48,
3.712,17.01,2.81,5.35,-1.65,2.73,2.29,
3.712,16.41,2.86,5.49,-1.65,2.73,2.29,
3.713,16.41,2.86,5.49,-1.65,2.91,2.11,
3.713,15.79,2.90,5.52,-1.65,2.91,2.11,
3.714,15.79,2.90,5.52,-1.64,3.06,1.94,
3.714,15.16,3.01,5.55,-1.64,3.06,1.94,
3.715,15.16,3.01,5.55,-1.61,3.16,1.80,
3.715,14.62,3.11,5.60,-1.61,3.16,1.80,
3.716,14.62,3.11,5.60,-1.57,3.23,1.66,
3.716,14.06,3.21,5.54,-1.57,3.23,1.66,
3.717,14.06,3.21,5.54,-1.52,3.26,1.55,
3.717,13.51,3.34,5.52,-1.52,3.26,1.55,
3.717,12.92,3.37,5.39,-1.52,3.26,1.55,
3.718,12.92,3.37,5.39,-1.46,3.27,1.45,
3.719,12.92,3.37,5.39,-1.40,3.24,1.37,
3.719,12.31,3.43,5.25,-1.40,3.24,1.37,
3.728,11.70,3.53,5.12,-1.40,3.24,1.37,
3.73,11.70,3.53,5.12,-1.33,3.18,1.31,
3.731,11.70,3.53,5.12,-1.26,3.10,1.28,
3.731,11.04,3.72,5.04,-1.26,3.10,1.28,
3.733,11.04,3.72,5.04,-1.20,2.99,1.27,
3.733,10.48,3.96,4.86,-1.20,2.99,1.27,
3.738,9.95,4.17,4.62,-1.20,2.99,1.27,
3.738,9.95,4.17,4.62,-1.13,2.88,1.29,
3.762,9.95,4.17,4.62,-1.08,2.74,1.33,
3.763,9.48,4.43,4.39,-1.08,2.74,1.33,
3.763,9.48,4.43,4.39,-1.03,2.59,1.38,
3.764,9.09,4.62,4.16,-1.03,2.59,1.38,
3.764,8.80,4.91,3.86,-1.03,2.59,1.38,
3.764,8.80,4.91,3.86,-1.00,2.44,1.45,
3.765,8.80,4.91,3.86,-0.99,2.27,1.53,
3.765,8.60,5.23,3.70,-0.99,2.27,1.53,
3.765,8.59,5.61,3.55,-0.99,2.27,1.53,
3.765,8.59,5.61,3.55,-0.98,2.09,1.62,
3.794,8.59,5.61,3.55,-0.99,1.91,1.70,
3.795,8.68,5.97,3.53,-0.99,1.91,1.70,
3.795,8.85,6.35,3.58,-0.99,1.91,1.70,
3.796,8.85,6.35,3.58,-1.00,1.73,1.78,
3.796,8.85,6.35,3.58,-1.02,1.55,1.85,
3.796,9.09,6.74,3.68,-1.02,1.55,1.85,
3.797,9.09,6.74,3.68,-1.03,1.36,1.92,
3.797,9.33,7.09,3.84,-1.03,1.36,1.92,
3.797,9.33,7.09,3.84,-1.03,1.16,1.97,
3.798,9.70,7.41,4.07,-1.03,1.16,1.97,
3.798,9.70,7.41,4.07,-1.03,0.95,2.01,
3.798,10.05,7.76,4.35,-1.03,0.95,2.01,
3.799,10.39,8.06,4.67,-1.03,0.95,2.01,
3.799,10.39,8.06,4.67,-1.01,0.74,2.04,
3.802,10.39,8.06,4.67,-0.97,0.53,2.07,
3.802,10.78,8.35,4.99,-0.97,0.53,2.07,
3.806,10.78,8.35,4.99,-0.93,0.32,2.09,
3.807,11.17,8.63,5.35,-0.93,0.32,2.09,
3.818,11.17,8.63,5.35,-0.86,0.11,2.10,
3.818,11.63,8.88,5.71,-0.86,0.11,2.10,
3.819,12.09,9.19,6.11,-0.86,0.11,2.10,
3.819,12.09,9.19,6.11,-0.79,-0.09,2.11,
3.821,12.09,9.19,6.11,-0.70,-0.28,2.11,
3.821,12.54,9.47,6.51,-0.70,-0.28,2.11,
3.826,12.54,9.47,6.51,-0.59,-0.46,2.10,
3.828,13.03,9.76,6.90,-0.59,-0.46,2.10,
3.851,13.03,9.76,6.90,-0.48,-0.61,2.08,
3.852,13.47,10.08,7.22,-0.48,-0.61,2.08,
3.853,13.47,10.08,7.22,-0.35,-0.76,2.06,
3.853,14.00,10.36,7.47,-0.35,-0.76,2.06,
3.853,14.00,10.36,7.47,-0.22,-0.91,2.04,
3.854,14.61,10.60,7.55,-0.22,-0.91,2.04,
3.854,14.61,10.60,7.55,-0.09,-1.04,2.00,
3.855,15.39,10.76,7.60,-0.09,-1.04,2.00,
3.855,16.34,10.79,7.66,-0.09,-1.04,2.00,
3.855,16.34,10.79,7.66,0.04,-1.15,1.93,
3.856,16.34,10.79,7.66,0.16,-1.23,1.82,
3.856,17.42,10.72,7.68,0.16,-1.23,1.82,
3.883,17.42,10.72,7.68,0.28,-1.28,1.66,
3.884,18.55,10.71,7.78,0.28,-1.28,1.66,
3.884,18.55,10.71,7.78,0.41,-1.29,1.44,
3.884,19.53,10.64,7.88,0.41,-1.29,1.44,
3.885,19.53,10.64,7.88,0.53,-1.27,1.17,
3.885,20.27,10.55,7.94,0.53,-1.27,1.17,
3.886,20.27,10.55,7.94,0.66,-1.24,0.85,
3.886,20.70,10.50,8.02,0.66,-1.24,0.85,
3.886,20.70,10.50,8.02,0.79,-1.21,0.51,
3.887,20.84,10.44,7.99,0.79,-1.21,0.51,
3.887,20.84,10.44,7.99,0.93,-1.18,0.15,
3.887,20.75,10.35,7.96,0.93,-1.18,0.15,
3.889,20.43,10.21,7.80,0.93,-1.18,0.15,
3.89,20.43,10.21,7.80,1.06,-1.16,-0.21,
3.897,20.00,9.97,7.55,1.06,-1.16,-0.21,
3.898,20.00,9.97,7.55,1.19,-1.16,-0.56,
3.899,19.46,9.61,7.28,1.19,-1.16,-0.56,
3.899,19.46,9.61,7.28,1.30,-1.17,-0.89,
3.904,18.95,9.17,6.91,1.30,-1.17,-0.89,
3.905,18.95,9.17,6.91,1.40,-1.18,-1.20,
3.909,18.46,8.64,6.45,1.40,-1.18,-1.20,
3.91,18.46,8.64,6.45,1.48,-1.18,-1.49,
3.914,18.07,7.91,5.98,1.48,-1.18,-1.49,
3.915,18.07,7.91,5.98,1.53,-1.19,-1.74,
3.919,17.73,7.15,5.50,1.53,-1.19,-1.74,
3.92,17.73,7.15,5.50,1.56,-1.19,-1.97,
3.924,17.54,6.33,5.09,1.56,-1.19,-1.97,
3.924,17.54,6.33,5.09,1.55,-1.19,-2.16,
3.969,17.54,6.33,5.09,1.51,-1.18,-2.33,
3.97,17.44,5.51,4.73,1.51,-1.18,-2.33,
3.971,17.44,5.51,4.73,1.46,-1.18,-2.48,
3.972,17.38,4.74,4.48,1.46,-1.18,-2.48,
3.972,17.38,4.74,4.48,1.40,-1.16,-2.60,
3.973,17.39,4.05,4.29,1.40,-1.16,-2.60,
3.974,17.39,4.05,4.29,1.33,-1.14,-2.70,
3.974,17.46,3.41,4.16,1.33,-1.14,-2.70,
3.975,17.46,3.41,4.16,1.25,-1.11,-2.79,
3.976,17.59,2.78,4.06,1.25,-1.11,-2.79,
3.976,17.85,2.18,4.05,1.25,-1.11,-2.79,
3.977,17.85,2.18,4.05,1.16,-1.09,-2.87,
3.978,17.85,2.18,4.05,1.07,-1.08,-2.94,
3.978,18.21,1.53,4.07,1.07,-1.08,-2.94,
3.979,18.21,1.53,4.07,0.98,-1.09,-3.01,
3.98,18.54,0.88,4.20,0.98,-1.09,-3.01,
3.98,19.00,0.29,4.39,0.98,-1.09,-3.01,
3.981,19.00,0.29,4.39,0.89,-1.09,-3.09,
3.982,19.00,0.29,4.39,0.81,-1.10,-3.19,
3.982,19.48,-0.28,4.62,0.81,-1.10,-3.19,
3.983,19.48,-0.28,4.62,0.73,-1.12,-3.30,
3.984,19.92,-0.84,4.87,0.73,-1.12,-3.30,
3.984,19.92,-0.84,4.87,0.67,-1.16,-3.44,
3.985,20.30,-1.35,5.23,0.67,-1.16,-3.44,
3.996,20.60,-1.88,5.59,0.67,-1.16,-3.44,
3.997,20.60,-1.88,5.59,0.62,-1.21,-3.59,
3.997,20.60,-1.88,5.59,0.59,-1.26,-3.77,
3.998,20.80,-2.42,6.00,0.59,-1.26,-3.77,
4.005,20.80,-2.42,6.00,0.57,-1.31,-3.96,
4.005,20.95,-2.91,6.46,0.57,-1.31,-3.96,
4.006,20.95,-2.91,6.46,0.57,-1.37,-4.17,
4.006,21.02,-3.49,6.85,0.57,-1.37,-4.17,
4.007,21.02,-3.49,6.85,0.59,-1.42,-4.39,
4.007,21.07,-4.09,7.28,0.59,-1.42,-4.39,
4.037,21.07,-4.09,7.28,0.63,-1.46,-4.62,
4.038,21.05,-4.74,7.67,0.63,-1.46,-4.62,
4.038,21.05,-5.48,8.02,0.63,-1.46,-4.62,
4.039,21.05,-5.48,8.02,0.69,-1.50,-4.85,
4.039,21.05,-5.48,8.02,0.76,-1.53,-5.10,
4.039,21.05,-6.36,8.26,0.76,-1.53,-5.10,
4.04,21.05,-6.36,8.26,0.84,-1.55,-5.35,
4.04,21.06,-7.35,8.49,0.84,-1.55,-5.35,
4.041,21.06,-7.35,8.49,0.93,-1.57,-5.61,
4.041,21.12,-8.43,8.65,0.93,-1.57,-5.61,
4.042,21.12,-8.43,8.65,1.03,-1.59,-5.86,
4.042,21.12,-9.63,8.69,1.03,-1.59,-5.86,
4.042,21.14,-10.84,8.64,1.03,-1.59,-5.86,
4.043,21.14,-10.84,8.64,1.13,-1.61,-6.11,
4.052,21.18,-12.07,8.53,1.13,-1.61,-6.11,
4.053,21.18,-12.07,8.53,1.23,-1.62,-6.36,
4.053,21.18,-12.07,8.53,1.32,-1.64,-6.59,
4.054,21.25,-13.30,8.38,1.32,-1.64,-6.59,
4.055,21.25,-13.30,8.38,1.41,-1.65,-6.81,
4.056,21.31,-14.59,8.11,1.41,-1.65,-6.81,
4.059,21.35,-15.91,7.74,1.41,-1.65,-6.81,
4.06,21.35,-15.91,7.74,1.48,-1.66,-7.03,
4.087,21.41,-17.21,7.28,1.48,-1.66,-7.03,
4.088,21.41,-17.21,7.28,1.53,-1.66,-7.22,
4.089,21.41,-17.21,7.28,1.57,-1.66,-7.40,
4.089,21.46,-18.49,6.76,1.57,-1.66,-7.40,
4.09,21.46,-18.49,6.76,1.58,-1.65,-7.55,
4.091,21.59,-19.77,6.19,1.58,-1.65,-7.55,
4.091,21.59,-19.77,6.19,1.56,-1.64,-7.69,
4.091,21.76,-20.94,5.62,1.56,-1.64,-7.69,
4.092,21.96,-22.14,5.07,1.56,-1.64,-7.69,
4.092,21.96,-22.14,5.07,1.53,-1.64,-7.81,
4.093,22.18,-23.19,4.62,1.53,-1.64,-7.81,
4.094,22.18,-23.19,4.62,1.46,-1.65,-7.91,
4.095,22.48,-24.30,4.10,1.46,-1.65,-7.91,
4.096,22.48,-24.30,4.10,1.37,-1.68,-8.01,
4.099,22.48,-24.30,4.10,1.25,-1.71,-8.09,
4.101,22.79,-25.44,3.72,1.25,-1.71,-8.09,
4.104,22.79,-25.44,3.72,1.12,-1.74,-8.17,
4.104,23.23,-26.66,3.39,1.12,-1.74,-8.17,
4.108,23.23,-26.66,3.39,0.97,-1.75,-8.23,
4.109,23.77,-27.90,3.09,0.97,-1.75,-8.23,
4.115,24.45,-29.06,2.91,0.97,-1.75,-8.23,
4.116,24.45,-29.06,2.91,0.81,-1.75,-8.28,
4.119,25.30,-30.17,2.87,0.81,-1.75,-8.28,
4.119,25.30,-30.17,2.87,0.65,-1.74,-8.33,
4.123,25.30,-30.17,2.87,0.49,-1.71,-8.39,
4.124,26.17,-31.04,3.04,0.49,-1.71,-8.39,
4.135,26.95,-32.03,3.30,0.49,-1.71,-8.39,
4.136,26.95,-32.03,3.30,0.36,-1.65,-8.49,
4.137,27.72,-33.29,3.87,0.36,-1.65,-8.49,
4.137,27.72,-33.29,3.87,0.24,-1.57,-8.63,
4.138,28.06,-34.42,4.57,0.24,-1.57,-8.63,
4.139,28.06,-34.42,4.57,0.18,-1.43,-8.80,
4.143,28.06,-34.42,4.57,0.17,-1.25,-9.00,
4.143,27.94,-34.78,5.28,0.17,-1.25,-9.00,
4.172,27.94,-34.78,5.28,0.23,-1.02,-9.21,
4.173,27.53,-35.17,5.91,0.23,-1.02,-9.21,
4.174,27.53,-35.17,5.91,0.37,-0.76,-9.41,
4.174,26.85,-35.57,6.39,0.37,-0.76,-9.41,
4.175,25.78,-35.99,6.69,0.37,-0.76,-9.41,
4.175,25.78,-35.99,6.69,0.56,-0.51,-9.61,
4.175,25.78,-35.99,6.69,0.82,-0.27,-9.78,
4.176,24.50,-36.42,6.97,0.82,-0.27,-9.78,
4.177,24.50,-36.42,6.97,1.12,-0.05,-9.93,
4.177,22.98,-36.87,6.99,1.12,-0.05,-9.93,
4.206,21.21,-37.33,6.69,1.12,-0.05,-9.93,
4.207,21.21,-37.33,6.69,1.45,0.13,-10.04,
4.207,21.21,-37.33,6.69,1.79,0.25,-10.09,
4.208,17.81,-37.80,6.07,1.79,0.25,-10.09,
4.208,17.81,-37.80,6.07,2.11,0.35,-10.01,
4.209,16.58,-38.27,5.38,2.11,0.35,-10.01,
4.209,16.58,-38.27,5.38,2.40,0.45,-9.94,
4.21,15.22,-38.73,4.95,2.40,0.45,-9.94,
4.21,13.66,-39.19,4.42,2.40,0.45,-9.94,
4.211,13.66,-39.19,4.42,2.67,0.42,-9.90,
4.212,13.66,-39.19,4.42,2.90,0.22,-9.83,
4.212,11.79,-39.47,3.82,2.90,0.22,-9.83,
4.213,11.79,-39.47,3.82,3.11,-0.04,-9.74,
4.213,9.47,-39.22,3.26,3.11,-0.04,-9.74,
4.214,6.98,-38.50,2.82,3.11,-0.04,-9.74,
4.214,6.98,-38.50,2.82,3.30,-0.32,-9.62,
4.215,4.69,-37.43,2.49,3.30,-0.32,-9.62,
4.215,4.69,-37.43,2.49,3.45,-0.61,-9.41,
4.216,2.73,-36.12,2.30,3.45,-0.61,-9.41,
4.216,2.73,-36.12,2.30,3.57,-0.90,-9.14,
4.225,2.73,-36.12,2.30,3.66,-1.20,-8.81,
4.226,1.09,-34.72,2.23,3.66,-1.20,-8.81,
4.227,-0.22,-33.21,2.32,3.66,-1.20,-8.81,
4.227,-0.22,-33.21,2.32,3.72,-1.49,-8.45,
4.261,-0.22,-33.21,2.32,3.76,-1.76,-8.09,
4.262,-1.08,-31.75,2.46,3.76,-1.76,-8.09,
4.262,-1.63,-30.41,2.53,3.76,-1.76,-8.09,
4.263,-1.63,-30.41,2.53,3.78,-2.03,-7.73,
4.263,-1.63,-30.41,2.53,3.79,-2.28,-7.39,
4.264,-1.91,-29.27,2.48,3.79,-2.28,-7.39,
4.264,-2.11,-28.19,2.42,3.79,-2.28,-7.39,
4.265,-2.11,-28.19,2.42,3.75,-2.49,-7.08,
4.265,-2.11,-28.19,2.42,3.69,-2.67,-6.80,
4.265,-2.30,-27.15,2.43,3.69,-2.67,-6.80,
4.266,-2.30,-27.15,2.43,3.59,-2.81,-6.55,
4.266,-2.46,-26.20,2.47,3.59,-2.81,-6.55,
4.267,-2.46,-26.20,2.47,3.46,-2.89,-6.33,
4.267,-2.61,-25.32,2.51,3.46,-2.89,-6.33,
4.268,-2.71,-24.47,2.58,3.46,-2.89,-6.33,
4.268,-2.71,-24.47,2.58,3.31,-2.93,-6.13,
4.269,-2.71,-24.47,2.58,3.13,-2.93,-5.94,
4.27,-2.78,-23.67,2.54,3.13,-2.93,-5.94,
4.274,-2.78,-23.67,2.54,2.93,-2.87,-5.77,
4.275,-2.86,-22.91,2.52,2.93,-2.87,-5.77,
4.285,-2.92,-22.18,2.40,2.93,-2.87,-5.77,
4.286,-2.92,-22.18,2.40,2.71,-2.78,-5.63,
4.286,-3.01,-21.58,2.23,2.71,-2.78,-5.63,
4.287,-3.01,-21.58,2.23,2.47,-2.66,-5.52,
4.289,-3.01,-21.58,2.23,2.20,-2.49,-5.43,
4.289,-3.18,-21.02,2.04,2.20,-2.49,-5.43,
4.293,-3.18,-21.02,2.04,1.92,-2.29,-5.37,
4.294,-3.46,-20.67,1.85,1.92,-2.29,-5.37,
4.316,-3.46,-20.67,1.85,1.62,-2.07,-5.31,
4.317,-3.90,-20.40,1.68,1.62,-2.07,-5.31,
4.317,-3.90,-20.40,1.68,1.30,-1.84,-5.25,
4.318,-4.46,-20.21,1.55,1.30,-1.84,-5.25,
4.318,-4.46,-20.21,1.55,0.98,-1.61,-5.17,
4.318,-5.05,-20.02,1.54,0.98,-1.61,-5.17,
4.319,-5.05,-20.02,1.54,0.65,-1.35,-5.07,
4.319,-5.57,-19.86,1.61,0.65,-1.35,-5.07,
4.32,-6.14,-19.68,1.76,0.65,-1.35,-5.07,
4.32,-6.14,-19.68,1.76,0.33,-1.10,-4.96,
4.323,-6.62,-19.51,2.02,0.33,-1.10,-4.96,
4.324,-6.62,-19.51,2.02,0.03,-0.85,-4.83,
4.329,-7.07,-19.43,2.31,0.03,-0.85,-4.83,
4.33,-7.07,-19.43,2.31,-0.25,-0.62,-4.69,
4.333,-7.50,-19.34,2.60,-0.25,-0.62,-4.69,
4.334,-7.50,-19.34,2.60,-0.49,-0.42,-4.55,
4.337,-8.00,-19.28,3.00,-0.49,-0.42,-4.55,
4.338,-8.00,-19.28,3.00,-0.71,-0.25,-4.41,
4.343,-8.43,-19.23,3.43,-0.71,-0.25,-4.41,
4.343,-8.43,-19.23,3.43,-0.88,-0.11,-4.25,
4.348,-8.81,-19.19,3.91,-0.88,-0.11,-4.25,
4.348,-8.81,-19.19,3.91,-1.01,-0.01,-4.08,
4.353,-9.15,-19.16,4.47,-1.01,-0.01,-4.08,
4.354,-9.15,-19.16,4.47,-1.09,0.04,-3.89,
4.357,-9.44,-19.20,5.04,-1.09,0.04,-3.89,
4.358,-9.44,-19.20,5.04,-1.11,0.06,-3.69,
4.372,-9.71,-19.13,5.54,-1.11,0.06,-3.69,
4.373,-9.71,-19.13,5.54,-1.09,0.03,-3.49,
4.374,-10.08,-19.01,5.99,-1.09,0.03,-3.49,
4.375,-10.08,-19.01,5.99,-1.01,-0.02,-3.27,
4.375,-10.40,-18.72,6.34,-1.01,-0.02,-3.27,
4.376,-10.40,-18.72,6.34,-0.90,-0.11,-3.04,
4.377,-10.40,-18.72,6.34,-0.77,-0.22,-2.80,
4.378,-10.71,-18.33,6.58,-0.77,-0.22,-2.80,
4.417,-10.71,-18.33,6.58,-0.61,-0.35,-2.54,
4.418,-10.86,-17.83,6.78,-0.61,-0.35,-2.54,
4.418,-10.86,-17.83,6.78,-0.44,-0.50,-2.28,
4.419,-10.83,-17.43,6.85,-0.44,-0.50,-2.28,
4.419,-10.83,-17.43,6.85,-0.28,-0.65,-2.03,
4.42,-10.62,-17.07,6.91,-0.28,-0.65,-2.03,
4.42,-10.25,-16.75,6.94,-0.28,-0.65,-2.03,
4.421,-10.25,-16.75,6.94,-0.11,-0.80,-1.78,
4.421,-10.25,-16.75,6.94,0.05,-0.92,-1.56,
4.422,-9.91,-16.49,6.86,0.05,-0.92,-1.56,
4.422,-9.91,-16.49,6.86,0.20,-1.02,-1.35,
4.423,-9.51,-16.29,6.74,0.20,-1.02,-1.35,
4.423,-9.51,-16.29,6.74,0.32,-1.09,-1.15,
4.424,-9.17,-16.13,6.60,0.32,-1.09,-1.15,
4.459,-9.17,-16.13,6.60,0.43,-1.13,-0.96,
4.46,-8.85,-15.97,6.36,0.43,-1.13,-0.96,
4.46,-8.85,-15.97,6.36,0.51,-1.14,-0.78,
4.461,-8.52,-15.81,6.10,0.51,-1.14,-0.78,
4.461,-8.52,-15.81,6.10,0.57,-1.14,-0.61,
4.462,-8.27,-15.64,5.81,0.57,-1.14,-0.61,
4.463,-8.27,-15.64,5.81,0.61,-1.11,-0.45,
4.463,-8.03,-15.50,5.46,0.61,-1.11,-0.45,
4.464,-8.03,-15.50,5.46,0.61,-1.07,-0.28,
4.465,-7.79,-15.39,5.09,0.61,-1.07,-0.28,
4.466,-7.79,-15.39,5.09,0.59,-1.01,-0.13,
4.466,-7.57,-15.30,4.78,0.59,-1.01,-0.13,
4.467,-7.57,-15.30,4.78,0.54,-0.94,0.02,
4.467,-7.43,-15.18,4.51,0.54,-0.94,0.02,
4.468,-7.43,-15.18,4.51,0.46,-0.86,0.17,
4.468,-7.26,-15.06,4.33,0.46,-0.86,0.17,
4.469,-7.26,-15.06,4.33,0.36,-0.75,0.30,
4.469,-7.13,-14.90,4.21,0.36,-0.75,0.30,
4.47,-7.06,-14.76,4.16,0.36,-0.75,0.30,
4.47,-7.06,-14.76,4.16,0.25,-0.63,0.43,
4.471,-6.99,-14.70,4.17,0.25,-0.63,0.43,
4.471,-6.99,-14.70,4.17,0.13,-0.51,0.56,
4.472,-6.95,-14.64,4.20,0.13,-0.51,0.56,
4.472,-6.95,-14.64,4.20,0.00,-0.39,0.69,
4.484,-6.95,-14.64,4.20,-0.12,-0.27,0.81,
4.485,-6.89,-14.67,4.33,-0.12,-0.27,0.81,
4.485,-6.89,-14.67,4.33,-0.24,-0.15,0.94,
4.486,-6.71,-14.72,4.50,-0.24,-0.15,0.94,
4.486,-6.52,-14.83,4.71,-0.24,-0.15,0.94,
4.486,-6.52,-14.83,4.71,-0.36,-0.03,1.06,
4.524,-6.52,-14.83,4.71,-0.46,0.09,1.18,
4.525,-6.36,-14.99,4.91,-0.46,0.09,1.18,
4.525,-6.16,-15.22,5.15,-0.46,0.09,1.18,
4.525,-6.16,-15.22,5.15,-0.55,0.21,1.31,
4.526,-5.92,-15.45,5.24,-0.55,0.21,1.31,
4.526,-5.92,-15.45,5.24,-0.62,0.32,1.42,
4.526,-5.72,-15.72,5.32,-0.62,0.32,1.42,
4.527,-5.72,-15.72,5.32,-0.68,0.44,1.54,
4.527,-5.55,-16.10,5.34,-0.68,0.44,1.54,
4.528,-5.55,-16.10,5.34,-0.73,0.54,1.65,
4.528,-5.55,-16.10,5.34,-0.78,0.64,1.77,
4.529,-5.40,-16.61,5.32,-0.78,0.64,1.77,
4.529,-5.38,-17.19,5.23,-0.78,0.64,1.77,
4.529,-5.38,-17.19,5.23,-0.81,0.74,1.90,
4.53,-5.38,-17.19,5.23,-0.84,0.83,2.03,
4.53,-5.44,-17.77,5.06,-0.84,0.83,2.03,
4.531,-5.44,-17.77,5.06,-0.87,0.92,2.19,
4.531,-5.68,-18.27,4.89,-0.87,0.92,2.19,
4.538,-5.96,-18.68,4.56,-0.87,0.92,2.19,
4.539,-5.96,-18.68,4.56,-0.91,0.99,2.36,
4.539,-5.96,-18.68,4.56,-0.95,1.07,2.56,
4.54,-6.37,-19.03,4.19,-0.95,1.07,2.56,
4.543,-6.37,-19.03,4.19,-1.02,1.13,2.79,
4.543,-6.84,-19.37,3.79,-1.02,1.13,2.79,
4.57,-6.84,-19.37,3.79,-1.10,1.19,3.05,
4.571,-7.32,-19.84,3.38,-1.10,1.19,3.05,
4.573,-7.32,-19.84,3.38,-1.21,1.24,3.34,
4.573,-7.79,-20.43,3.01,-1.21,1.24,3.34,
4.574,-7.79,-20.43,3.01,-1.33,1.28,3.67,
4.574,-8.15,-21.08,2.65,-1.33,1.28,3.67,
4.574,-8.15,-21.08,2.65,-1.47,1.28,4.04,
4.575,-8.34,-21.74,2.33,-1.47,1.28,4.04,
4.575,-8.34,-21.74,2.33,-1.63,1.26,4.43,
4.575,-8.32,-22.39,2.17,-1.63,1.26,4.43,
4.576,-8.32,-22.39,2.17,-1.80,1.21,4.84,
4.576,-8.06,-22.99,2.11,-1.80,1.21,4.84,
4.577,-8.06,-22.99,2.11,-1.97,1.15,5.26,
4.577,-7.59,-23.63,2.14,-1.97,1.15,5.26,
4.584,-7.59,-23.63,2.14,-2.14,1.07,5.69,
4.585,-6.92,-24.27,2.32,-2.14,1.07,5.69,
4.588,-6.92,-24.27,2.32,-2.30,1.00,6.11,
4.589,-6.01,-24.96,2.48,-2.30,1.00,6.11,
4.592,-6.01,-24.96,2.48,-2.46,0.91,6.52,
4.592,-4.97,-25.63,2.62,-2.46,0.91,6.52,
4.602,-4.97,-25.63,2.62,-2.62,0.84,6.92,
4.603,-3.81,-26.34,2.79,-2.62,0.84,6.92,
4.604,-2.47,-27.06,3.03,-2.62,0.84,6.92,
4.604,-2.47,-27.06,3.03,-2.78,0.76,7.32,
4.606,-1.10,-27.76,3.39,-2.78,0.76,7.32,
4.607,-1.10,-27.76,3.39,-2.93,0.71,7.69,
4.611,0.37,-28.42,3.83,-2.93,0.71,7.69,
4.612,0.37,-28.42,3.83,-3.07,0.70,8.05,
4.634,2.00,-28.98,4.27,-3.07,0.70,8.05,
4.635,2.00,-28.98,4.27,-3.19,0.70,8.38,
4.636,2.00,-28.98,4.27,-3.29,0.74,8.67,
4.636,3.72,-29.50,4.65,-3.29,0.74,8.67,
4.636,5.67,-29.98,4.97,-3.29,0.74,8.67,
4.637,5.67,-29.98,4.97,-3.38,0.80,8.93,
4.637,7.73,-30.34,5.25,-3.38,0.80,8.93,
4.638,7.73,-30.34,5.25,-3.45,0.88,9.15,
4.638,9.66,-30.49,5.49,-3.45,0.88,9.15,
4.638,9.66,-30.49,5.49,-3.51,1.00,9.31,
4.64,11.37,-30.41,5.61,-3.51,1.00,9.31,
4.641,11.37,-30.41,5.61,-3.55,1.15,9.40,
4.645,12.85,-30.27,5.73,-3.55,1.15,9.40,
4.646,12.85,-30.27,5.73,-3.60,1.33,9.42,
4.654,12.85,-30.27,5.73,-3.65,1.52,9.40,
4.655,13.85,-30.12,5.63,-3.65,1.52,9.40,
4.656,13.85,-30.12,5.63,-3.70,1.71,9.34,
4.656,14.54,-30.02,5.50,-3.70,1.71,9.34,
4.695,14.54,-30.02,5.50,-3.76,1.91,9.27,
4.695,14.95,-30.04,5.22,-3.76,1.91,9.27,
4.696,14.95,-30.04,5.22,-3.83,2.08,9.21,
4.696,15.31,-30.21,4.90,-3.83,2.08,9.21,
4.697,15.31,-30.21,4.90,-3.92,2.21,9.15,
4.698,15.56,-30.50,4.58,-3.92,2.21,9.15,
4.698,15.56,-30.50,4.58,-4.00,2.31,9.12,
4.699,15.93,-30.95,4.25,-4.00,2.31,9.12,
4.699,15.93,-30.95,4.25,-4.09,2.37,9.12,
4.7,16.40,-31.61,3.82,-4.09,2.37,9.12,
4.7,16.40,-31.61,3.82,-4.18,2.38,9.14,
4.701,16.94,-32.43,3.34,-4.18,2.38,9.14,
4.701,16.94,-32.43,3.34,-4.27,2.34,9.19,
4.702,17.68,-33.26,2.76,-4.27,2.34,9.19,
4.702,17.68,-33.26,2.76,-4.37,2.26,9.27,
4.703,18.80,-34.11,2.24,-4.37,2.26,9.27,
4.704,20.21,-34.89,1.69,-4.37,2.26,9.27,
4.704,20.21,-34.89,1.69,-4.49,2.13,9.36,
4.705,20.21,-34.89,1.69,-4.62,1.94,9.45,
4.705,21.81,-35.60,1.15,-4.62,1.94,9.45,
4.708,21.81,-35.60,1.15,-4.75,1.70,9.53,
4.709,23.62,-35.96,0.67,-4.75,1.70,9.53,
4.719,25.51,-35.52,0.28,-4.75,1.70,9.53,
4.721,25.51,-35.52,0.28,-4.90,1.43,9.60,
4.721,27.44,-35.08,0.04,-4.90,1.43,9.60,
4.721,27.44,-35.08,0.04,-5.04,1.12,9.64,
4.723,27.44,-35.08,0.04,-5.18,0.76,9.64,
4.723,29.19,-34.65,0.10,-5.18,0.76,9.64,
4.728,29.19,-34.65,0.10,-5.29,0.37,9.63,
4.729,30.77,-34.24,0.44,-5.29,0.37,9.63,
4.755,30.77,-34.24,0.44,-5.36,-0.05,9.59,
4.756,31.42,-33.84,1.27,-5.36,-0.05,9.59,
4.757,31.42,-33.84,1.27,-5.36,-0.47,9.56,
4.757,31.64,-33.45,2.64,-5.36,-0.47,9.56,
4.758,31.64,-33.45,2.64,-5.27,-0.90,9.52,
4.758,31.88,-33.08,4.32,-5.27,-0.90,9.52,
4.759,31.88,-33.08,4.32,-5.05,-1.33,9.48,
4.759,32.14,-32.73,6.03,-5.05,-1.33,9.48,
4.76,32.14,-32.73,6.03,-4.71,-1.78,9.44,
4.76,32.41,-30.93,7.63,-4.71,-1.78,9.44,
4.761,32.41,-30.93,7.63,-4.26,-2.22,9.33,
4.761,32.70,-28.85,8.80,-4.26,-2.22,9.33,
4.762,32.70,-28.85,8.80,-3.74,-2.64,9.14,
4.762,33.01,-26.66,9.57,-3.74,-2.64,9.14,
4.768,33.32,-24.33,9.92,-3.74,-2.64,9.14,
4.768,33.32,-24.33,9.92,-3.16,-3.05,8.88,
4.772,33.63,-21.90,10.03,-3.16,-3.05,8.88,
4.773,33.63,-21.90,10.03,-2.58,-3.43,8.54,
4.777,33.95,-19.51,9.93,-2.58,-3.43,8.54,
4.777,33.95,-19.51,9.93,-2.02,-3.77,8.17,
4.787,33.95,-19.51,9.93,-1.48,-4.05,7.77,
4.788,34.26,-17.20,9.82,-1.48,-4.05,7.77,
4.788,34.57,-15.04,9.65,-1.48,-4.05,7.77,
4.789,34.57,-15.04,9.65,-0.98,-4.26,7.36,
4.791,34.87,-13.00,9.49,-0.98,-4.26,7.36,
4.792,34.87,-13.00,9.49,-0.53,-4.36,6.94,
4.82,34.87,-13.00,9.49,-0.12,-4.38,6.53,
4.821,35.16,-11.16,9.35,-0.12,-4.38,6.53,
4.822,35.16,-11.16,9.35,0.24,-4.32,6.14,
4.822,34.53,-9.49,9.17,0.24,-4.32,6.14,
4.822,34.53,-9.49,9.17,0.56,-4.18,5.78,
4.823,33.03,-7.89,9.07,0.56,-4.18,5.78,
4.823,33.03,-7.89,9.07,0.84,-3.98,5.45,
4.824,31.42,-6.29,8.92,0.84,-3.98,5.45,
4.824,29.78,-4.74,8.63,0.84,-3.98,5.45,
4.824,29.78,-4.74,8.63,1.09,-3.69,5.18,
4.825,29.78,-4.74,8.63,1.30,-3.33,4.96,
4.825,28.19,-3.32,8.02,1.30,-3.33,4.96,
4.826,26.70,-2.03,7.13,1.30,-3.33,4.96,
4.826,26.70,-2.03,7.13,1.45,-2.91,4.78,
4.832,26.70,-2.03,7.13,1.53,-2.41,4.65,
4.832,25.48,-0.82,5.99,1.53,-2.41,4.65,
4.835,24.50,0.31,4.75,1.53,-2.41,4.65,
4.836,24.50,0.31,4.75,1.53,-1.89,4.55,
4.84,23.79,1.35,3.63,1.53,-1.89,4.55,
4.841,23.79,1.35,3.63,1.44,-1.33,4.46,
4.845,23.79,1.35,3.63,1.27,-0.77,4.37,
4.846,23.26,2.24,2.59,1.27,-0.77,4.37,
4.85,23.26,2.24,2.59,1.03,-0.22,4.27,
4.851,22.88,3.05,1.79,1.03,-0.22,4.27,
4.855,22.88,3.05,1.79,0.74,0.31,4.14,
4.856,22.60,3.68,1.28,0.74,0.31,4.14,
4.86,22.60,3.68,1.28,0.43,0.81,3.99,
4.86,22.29,4.23,1.14,0.43,0.81,3.99,
4.866,22.29,4.23,1.14,0.11,1.29,3.82,
4.866,21.93,4.61,1.32,0.11,1.29,3.82,
4.87,21.93,4.61,1.32,-0.19,1.73,3.64,
4.87,21.51,4.87,1.78,-0.19,1.73,3.64,
4.875,21.03,5.02,2.33,-0.19,1.73,3.64,
4.875,21.03,5.02,2.33,-0.45,2.11,3.44,
4.879,20.44,5.09,2.99,-0.45,2.11,3.44,
4.88,20.44,5.09,2.99,-0.66,2.44,3.25,
4.884,20.44,5.09,2.99,-0.81,2.72,3.06,
4.885,19.75,5.10,3.63,-0.81,2.72,3.06,
4.89,19.75,5.10,3.63,-0.90,2.95,2.87,
4.89,19.05,5.04,4.20,-0.90,2.95,2.87,
4.894,19.05,5.04,4.20,-0.95,3.12,2.71,
4.895,18.32,4.93,4.62,-0.95,3.12,2.71,
4.906,18.32,4.93,4.62,-0.96,3.24,2.57,
4.907,17.57,4.87,4.98,-0.96,3.24,2.57,
4.948,17.57,4.87,4.98,-0.92,3.30,2.45,
4.949,16.80,4.83,5.18,-0.92,3.30,2.45,
4.949,16.80,4.83,5.18,-0.86,3.32,2.35,
4.95,16.10,4.82,5.30,-0.86,3.32,2.35,
4.951,15.50,4.81,5.28,-0.86,3.32,2.35,
4.951,15.50,4.81,5.28,-0.78,3.31,2.27,
4.952,15.50,4.81,5.28,-0.69,3.27,2.21,
4.952,14.95,4.87,5.24,-0.69,3.27,2.21,
4.953,14.95,4.87,5.24,-0.59,3.21,2.16,
4.953,14.48,5.03,5.12,-0.59,3.21,2.16,
4.954,14.48,5.03,5.12,-0.49,3.13,2.12,
4.954,14.06,5.18,4.93,-0.49,3.13,2.12,
4.955,14.06,5.18,4.93,-0.40,3.03,2.08,
4.955,13.62,5.33,4.69,-0.40,3.03,2.08,
4.956,13.62,5.33,4.69,-0.32,2.92,2.05,
4.956,13.22,5.48,4.43,-0.32,2.92,2.05,
4.956,12.83,5.69,4.17,-0.32,2.92,2.05,
4.957,12.83,5.69,4.17,-0.25,2.81,2.03,
4.957,12.83,5.69,4.17,-0.20,2.68,2.01,
4.958,12.50,5.98,3.97,-0.20,2.68,2.01,
4.958,12.50,5.98,3.97,-0.16,2.54,2.00,
4.959,12.24,6.31,3.78,-0.16,2.54,2.00,
4.959,12.04,6.68,3.63,-0.16,2.54,2.00,
4.96,12.04,6.68,3.63,-0.13,2.39,2.00,
4.962,12.04,6.68,3.63,-0.10,2.24,2.00,
4.964,11.81,7.12,3.56,-0.10,2.24,2.00,
4.967,11.81,7.12,3.56,-0.07,2.08,2.00,
4.968,11.64,7.50,3.51,-0.07,2.08,2.00,
4.972,11.64,7.50,3.51,-0.04,1.91,2.00,
4.972,11.48,7.95,3.42,-0.04,1.91,2.00,
4.976,11.34,8.37,3.32,-0.04,1.91,2.00,
4.977,11.34,8.37,3.32,-0.02,1.72,2.01,
4.982,11.18,8.77,3.20,-0.02,1.72,2.01,
4.983,11.18,8.77,3.20,0.01,1.52,2.02,
4.987,11.18,8.77,3.20,0.02,1.31,2.04,
4.987,11.06,9.09,3.11,0.02,1.31,2.04,
4.992,11.06,9.09,3.11,0.04,1.09,2.06,
4.992,10.92,9.49,3.03,0.04,1.09,2.06,
4.997,10.92,9.49,3.03,0.04,0.86,2.10,
4.997,10.84,9.85,3.02,0.04,0.86,2.10,
5.007,10.84,9.85,3.02,0.04,0.65,2.14,
5.008,10.81,10.26,2.99,0.04,0.65,2.14,
5.009,10.81,10.26,2.99,0.04,0.44,2.19,
5.009,10.87,10.65,2.96,0.04,0.44,2.19,
5.011,10.87,10.65,2.96,0.02,0.23,2.23,
5.012,11.04,11.01,2.96,0.02,0.23,2.23,
5.053,11.04,11.01,2.96,0.00,0.04,2.28,
5.054,11.25,11.32,2.96,0.00,0.04,2.28,
5.055,11.25,11.32,2.96,-0.03,-0.15,2.33,
5.055,11.48,11.57,2.97,-0.03,-0.15,2.33,
5.056,11.76,11.85,3.10,-0.03,-0.15,2.33,
5.056,11.76,11.85,3.10,-0.07,-0.33,2.38,
5.057,12.15,12.13,3.15,-0.07,-0.33,2.38,
5.058,12.15,12.13,3.15,-0.12,-0.48,2.42,
5.058,12.15,12.13,3.15,-0.18,-0.63,2.45,
5.059,12.62,12.35,3.33,-0.18,-0.63,2.45,
5.059,12.62,12.35,3.33,-0.24,-0.76,2.48,
5.06,13.05,12.47,3.57,-0.24,-0.76,2.48,
5.06,13.05,12.47,3.57,-0.30,-0.88,2.49,
5.061,13.54,12.60,3.84,-0.30,-0.88,2.49,
5.061,13.54,12.60,3.84,-0.36,-0.99,2.51,
5.062,14.10,12.63,4.16,-0.36,-0.99,2.51,
5.063,14.10,12.63,4.16,-0.41,-1.09,2.50,
5.063,14.85,12.57,4.50,-0.41,-1.09,2.50,
5.064,14.85,12.57,4.50,-0.46,-1.17,2.47,
5.064,15.88,12.35,4.99,-0.46,-1.17,2.47,
5.065,15.88,12.35,4.99,-0.48,-1.22,2.40,
5.065,17.04,12.04,5.59,-0.48,-1.22,2.40,
5.07,17.04,12.04,5.59,-0.47,-1.24,2.28,
5.071,18.32,11.70,6.27,-0.47,-1.24,2.28,
5.075,18.32,11.70,6.27,-0.43,-1.22,2.10,
5.075,19.49,11.33,6.94,-0.43,-1.22,2.10,
5.08,19.49,11.33,6.94,-0.35,-1.17,1.88,
5.081,20.46,10.92,7.62,-0.35,-1.17,1.88,
5.087,20.46,10.92,7.62,-0.22,-1.12,1.62,
5.088,21.24,10.57,8.36,-0.22,-1.12,1.62,
5.089,21.88,10.24,9.05,-0.22,-1.12,1.62,
5.09,21.88,10.24,9.05,-0.07,-1.08,1.33,
5.094,21.88,10.24,9.05,0.12,-1.07,1.00,
5.095,22.30,9.93,9.54,0.12,-1.07,1.00,
5.1,22.47,9.50,9.73,0.12,-1.07,1.00,
5.101,22.47,9.50,9.73,0.34,-1.09,0.66,
5.104,22.51,9.03,9.67,0.34,-1.09,0.66,
5.105,22.51,9.03,9.67,0.58,-1.14,0.32,
5.109,22.39,8.57,9.48,0.58,-1.14,0.32,
5.109,22.39,8.57,9.48,0.81,-1.23,-0.00,
5.115,22.23,8.04,9.12,0.81,-1.23,-0.00,
5.116,22.23,8.04,9.12,1.03,-1.36,-0.30,
5.119,22.23,8.04,9.12,1.22,-1.52,-0.58,
5.119,22.06,7.54,8.66,1.22,-1.52,-0.58,
5.124,22.02,7.08,8.15,1.22,-1.52,-0.58,
5.124,22.02,7.08,8.15,1.38,-1.70,-0.81,
5.128,22.11,6.61,7.67,1.38,-1.70,-0.81,
5.129,22.11,6.61,7.67,1.50,-1.89,-1.02,
5.143,22.39,6.16,7.20,1.50,-1.89,-1.02,
5.144,22.39,6.16,7.20,1.58,-2.09,-1.21,
5.145,22.95,5.68,6.77,1.58,-2.09,-1.21,
5.146,22.95,5.68,6.77,1.63,-2.27,-1.40,
5.146,23.69,5.09,6.50,1.63,-2.27,-1.40,
5.147,23.69,5.09,6.50,1.64,-2.43,-1.61,
5.19,24.44,4.50,6.40,1.64,-2.43,-1.61,
5.191,24.44,4.50,6.40,1.63,-2.56,-1.86,
5.191,24.44,4.50,6.40,1.61,-2.65,-2.16,
5.192,25.12,3.78,6.38,1.61,-2.65,-2.16,
5.193,25.12,3.78,6.38,1.58,-2.71,-2.50,
5.193,25.70,2.98,6.48,1.58,-2.71,-2.50,
5.194,26.12,2.08,6.64,1.58,-2.71,-2.50,
5.194,26.12,2.08,6.64,1.56,-2.74,-2.87,
5.195,26.12,2.08,6.64,1.55,-2.76,-3.27,
5.195,26.22,1.14,6.90,1.55,-2.76,-3.27,
5.196,26.11,0.16,7.13,1.55,-2.76,-3.27,
5.196,26.11,0.16,7.13,1.55,-2.76,-3.68,
5.197,25.74,-0.78,7.18,1.55,-2.76,-3.68,
5.198,25.74,-0.78,7.18,1.56,-2.76,-4.09,
5.198,25.74,-0.78,7.18,1.57,-2.76,-4.50,
5.199,25.19,-1.73,7.04,1.57,-2.76,-4.50,
5.2,24.44,-2.64,6.78,1.57,-2.76,-4.50,
5.2,24.44,-2.64,6.78,1.57,-2.76,-4.89,
5.201,24.44,-2.64,6.78,1.56,-2.79,-5.25,
5.201,23.78,-3.63,6.49,1.56,-2.79,-5.25,
5.202,23.78,-3.63,6.49,1.52,-2.85,-5.58,
5.202,23.27,-4.71,6.17,1.52,-2.85,-5.58,
5.203,22.99,-5.89,5.91,1.52,-2.85,-5.58,
5.203,22.99,-5.89,5.91,1.46,-2.93,-5.89,
5.206,22.92,-7.17,5.70,1.46,-2.93,-5.89,
5.207,22.92,-7.17,5.70,1.37,-3.03,-6.19,
5.211,23.02,-8.55,5.58,1.37,-3.03,-6.19,
5.212,23.02,-8.55,5.58,1.27,-3.11,-6.46,
5.223,23.18,-10.05,5.57,1.27,-3.11,-6.46,
5.224,23.18,-10.05,5.57,1.16,-3.20,-6.73,
5.224,23.18,-10.05,5.57,1.05,-3.26,-6.97,
5.225,23.33,-11.55,5.70,1.05,-3.26,-6.97,
5.225,23.45,-12.97,5.91,1.05,-3.26,-6.97,
5.226,23.45,-12.97,5.91,0.94,-3.31,-7.21,
5.231,23.45,-12.97,5.91,0.84,-3.32,-7.42,
5.231,23.51,-14.35,6.22,0.84,-3.32,-7.42,
5.261,23.51,-14.35,6.22,0.76,-3.30,-7.61,
5.262,23.48,-15.60,6.49,0.76,-3.30,-7.61,
5.262,23.48,-15.60,6.49,0.69,-3.26,-7.79,
5.263,23.40,-16.75,6.71,0.69,-3.26,-7.79,
5.263,23.28,-17.79,6.87,0.69,-3.26,-7.79,
5.264,23.28,-17.79,6.87,0.63,-3.20,-7.94,
5.265,23.11,-18.77,6.88,0.63,-3.20,-7.94,
5.266,23.11,-18.77,6.88,0.58,-3.12,-8.07,
5.266,23.00,-19.74,6.82,0.58,-3.12,-8.07,
5.267,23.00,-19.74,6.82,0.53,-3.02,-8.19,
5.268,23.10,-20.82,6.62,0.53,-3.02,-8.19,
5.268,23.10,-20.82,6.62,0.47,-2.93,-8.30,
5.269,23.10,-20.82,6.62,0.41,-2.83,-8.40,
5.269,23.39,-22.06,6.29,0.41,-2.83,-8.40,
5.27,23.85,-23.42,5.99,0.41,-2.83,-8.40,
5.27,23.85,-23.42,5.99,0.33,-2.73,-8.49,
5.275,23.85,-23.42,5.99,0.23,-2.61,-8.58,
5.276,24.31,-24.70,5.75,0.23,-2.61,-8.58,
5.279,25.08,-26.09,5.27,0.23,-2.61,-8.58,
5.28,25.08,-26.09,5.27,0.12,-2.46,-8.68,
5.285,25.08,-26.09,5.27,-0.00,-2.32,-8.78,
5.286,25.91,-27.66,4.77,-0.00,-2.32,-8.78,
5.289,26.22,-28.87,4.41,-0.00,-2.32,-8.78,
5.29,26.22,-28.87,4.41,-0.15,-2.17,-8.90,
5.294,26.13,-29.85,4.21,-0.15,-2.17,-8.90,
5.294,26.13,-29.85,4.21,-0.33,-1.97,-9.03,
5.299,25.94,-30.68,4.09,-0.33,-1.97,-9.03,
5.3,25.94,-30.68,4.09,-0.51,-1.70,-9.18,
5.304,25.70,-31.56,4.10,-0.51,-1.70,-9.18,
5.305,25.70,-31.56,4.10,-0.67,-1.39,-9.32,
5.308,25.70,-31.56,4.10,-0.82,-1.05,-9.45,
5.309,25.33,-32.37,4.28,-0.82,-1.05,-9.45,
5.313,24.78,-33.04,4.43,-0.82,-1.05,-9.45,
5.315,24.78,-33.04,4.43,-0.93,-0.69,-9.58,
5.325,23.98,-33.57,4.63,-0.93,-0.69,-9.58,
5.326,23.98,-33.57,4.63,-1.00,-0.29,-9.68,
5.327,22.93,-33.80,4.77,-1.00,-0.29,-9.68,
5.328,22.93,-33.80,4.77,-1.01,0.13,-9.78,
5.329,22.93,-33.80,4.77,-0.99,0.53,-9.85,
5.329,21.81,-33.91,4.76,-0.99,0.53,-9.85,
5.368,21.81,-33.91,4.76,-0.93,0.91,-9.91,
5.369,20.62,-33.98,4.54,-0.93,0.91,-9.91,
5.37,19.37,-34.07,4.27,-0.93,0.91,-9.91,
5.371,19.37,-34.07,4.27,-0.84,1.27,-9.94,
5.372,18.04,-34.17,4.01,-0.84,1.27,-9.94,
5.372,18.04,-34.17,4.01,-0.74,1.60,-9.94,
5.373,18.04,-34.17,4.01,-0.61,1.93,-9.91,
5.374,16.57,-34.11,3.75,-0.61,1.93,-9.91,
5.374,15.02,-33.78,3.43,-0.61,1.93,-9.91,
5.375,15.02,-33.78,3.43,-0.47,2.23,-9.84,
5.376,15.02,-33.78,3.43,-0.31,2.50,-9.73,
5.376,13.53,-33.43,2.96,-0.31,2.50,-9.73,
5.377,13.53,-33.43,2.96,-0.16,2.71,-9.60,
5.378,12.13,-33.10,2.53,-0.16,2.71,-9.60,
5.378,10.96,-32.80,2.09,-0.16,2.71,-9.60,
5.379,10.96,-32.80,2.09,-0.01,2.85,-9.43,
5.38,10.96,-32.80,2.09,0.13,2.93,-9.23,
5.38,9.85,-32.37,1.72,0.13,2.93,-9.23,
5.381,8.88,-31.90,1.38,0.13,2.93,-9.23,
5.382,8.88,-31.90,1.38,0.27,2.98,-9.01,
5.382,8.88,-31.90,1.38,0.40,2.98,-8.79,
5.383,7.95,-31.37,1.10,0.40,2.98,-8.79,
5.395,7.95,-31.37,1.10,0.51,2.97,-8.54,
5.397,7.00,-30.72,0.92,0.51,2.97,-8.54,
5.441,5.99,-29.98,0.81,0.51,2.97,-8.54,
5.441,5.99,-29.98,0.81,0.63,2.93,-8.29,
5.442,4.98,-29.10,0.74,0.63,2.93,-8.29,
5.442,4.98,-29.10,0.74,0.74,2.88,-8.03,
5.443,4.01,-28.24,0.77,0.74,2.88,-8.03,
5.443,4.01,-28.24,0.77,0.85,2.82,-7.77,
5.444,4.01,-28.24,0.77,0.96,2.72,-7.51,
5.444,3.06,-27.41,0.91,0.96,2.72,-7.51,
5.445,2.23,-26.60,1.17,0.96,2.72,-7.51,
5.445,2.23,-26.60,1.17,1.08,2.57,-7.25,
5.445,2.23,-26.60,1.17,1.23,2.37,-7.00,
5.446,1.45,-25.81,1.58,1.23,2.37,-7.00,
5.446,1.45,-25.81,1.58,1.40,2.12,-6.75,
5.447,0.73,-25.03,2.10,1.40,2.12,-6.75,
5.447,0.08,-24.24,2.74,1.40,2.12,-6.75,
5.448,0.08,-24.24,2.74,1.60,1.81,-6.52,
5.448,0.08,-24.24,2.74,1.84,1.46,-6.29,
5.449,-0.50,-23.46,3.39,1.84,1.46,-6.29,
5.451,-0.50,-23.46,3.39,2.10,1.06,-6.07,
5.451,-1.10,-22.74,3.97,2.10,1.06,-6.07,
5.451,-1.64,-22.06,4.39,2.10,1.06,-6.07,
5.452,-1.64,-22.06,4.39,2.40,0.64,-5.86,
5.452,-1.64,-22.06,4.39,2.71,0.21,-5.66,
5.452,-2.12,-21.44,4.65,2.71,0.21,-5.66,
5.453,-2.12,-21.44,4.65,3.01,-0.22,-5.46,
5.453,-2.49,-20.90,4.70,3.01,-0.22,-5.46,
5.455,-2.49,-20.90,4.70,3.29,-0.64,-5.28,
5.456,-2.75,-20.46,4.62,3.29,-0.64,-5.28,
5.46,-2.75,-20.46,4.62,3.55,-1.04,-5.11,
5.461,-2.88,-20.06,4.37,3.55,-1.04,-5.11,
5.466,-2.88,-20.06,4.37,3.76,-1.41,-4.95,
5.467,-2.94,-19.79,4.08,3.76,-1.41,-4.95,
5.47,-2.94,-19.79,4.08,3.92,-1.73,-4.81,
5.471,-2.86,-19.52,3.79,3.92,-1.73,-4.81,
5.475,-2.66,-19.33,3.44,3.92,-1.73,-4.81,
5.476,-2.66,-19.33,3.44,4.04,-2.00,-4.68,
5.479,-2.30,-19.32,3.04,4.04,-2.00,-4.68,
5.48,-2.30,-19.32,3.04,4.11,-2.23,-4.56,
5.488,-2.30,-19.32,3.04,4.14,-2.43,-4.46,
5.489,-1.82,-19.51,2.69,4.14,-2.43,-4.46,
5.49,-1.82,-19.51,2.69,4.13,-2.60,-4.36,
5.49,-1.28,-19.77,2.32,4.13,-2.60,-4.36,
5.494,-1.28,-19.77,2.32,4.07,-2.70,-4.28,
5.495,-0.87,-19.92,2.12,4.07,-2.70,-4.28,
5.53,-0.87,-19.92,2.12,3.98,-2.74,-4.21,
5.532,-0.67,-19.87,1.96,3.98,-2.74,-4.21,
5.532,-0.67,-19.87,1.96,3.86,-2.71,-4.15,
5.533,-0.72,-19.60,1.86,3.86,-2.71,-4.15,
5.533,-0.72,-19.60,1.86,3.72,-2.62,-4.10,
5.534,-1.03,-19.25,1.71,3.72,-2.62,-4.10,
5.534,-1.45,-18.81,1.55,3.72,-2.62,-4.10,
5.535,-1.45,-18.81,1.55,3.56,-2.48,-4.03,
5.535,-1.90,-18.34,1.38,3.56,-2.48,-4.03,
5.536,-1.90,-18.34,1.38,3.37,-2.33,-3.96,
5.536,-1.90,-18.34,1.38,3.17,-2.17,-3.86,
5.537,-2.37,-17.86,1.25,3.17,-2.17,-3.86,
5.537,-2.75,-17.42,1.18,3.17,-2.17,-3.86,
5.538,-2.75,-17.42,1.18,2.95,-2.01,-3.76,
5.538,-2.75,-17.42,1.18,2.71,-1.87,-3.65,
5.539,-3.11,-17.01,1.17,2.71,-1.87,-3.65,
5.539,-3.47,-16.60,1.25,2.71,-1.87,-3.65,
5.54,-3.47,-16.60,1.25,2.47,-1.72,-3.53,
5.543,-3.83,-16.22,1.34,2.47,-1.72,-3.53,
5.544,-3.83,-16.22,1.34,2.23,-1.57,-3.41,
5.548,-3.83,-16.22,1.34,1.99,-1.41,-3.28,
5.548,-4.05,-15.91,1.46,1.99,-1.41,-3.28,
5.558,-4.20,-15.64,1.66,1.99,-1.41,-3.28,
5.558,-4.20,-15.64,1.66,1.76,-1.26,-3.13,
5.559,-4.20,-15.64,1.66,1.54,-1.11,-2.98,
5.559,-4.24,-15.46,1.87,1.54,-1.11,-2.98,
5.562,-4.24,-15.46,1.87,1.33,-0.98,-2.83,
5.563,-4.23,-15.35,2.15,1.33,-0.98,-2.83,
5.597,-4.23,-15.35,2.15,1.15,-0.85,-2.68,
5.598,-4.12,-15.23,2.46,1.15,-0.85,-2.68,
5.599,-3.95,-15.17,2.81,1.15,-0.85,-2.68,
5.599,-3.95,-15.17,2.81,0.98,-0.73,-2.54,
5.6,-3.77,-15.14,3.17,0.98,-0.73,-2.54,
5.6,-3.77,-15.14,3.17,0.83,-0.62,-2.40,
5.601,-3.77,-15.14,3.17,0.71,-0.53,-2.28,
5.601,-3.60,-15.14,3.52,0.71,-0.53,-2.28,
5.601,-3.60,-15.14,3.52,0.62,-0.44,-2.17,
5.602,-3.51,-15.15,3.84,0.62,-0.44,-2.17,
5.602,-3.51,-15.15,3.84,0.55,-0.36,-2.08,
5.603,-3.41,-15.11,4.15,0.55,-0.36,-2.08,
5.603,-3.39,-15.10,4.42,0.55,-0.36,-2.08,
5.603,-3.39,-15.10,4.42,0.51,-0.28,-1.99,
5.604,-3.39,-15.10,4.42,0.49,-0.22,-1.93,
5.604,-3.47,-15.07,4.73,0.49,-0.22,-1.93,
5.606,-3.54,-15.10,5.00,0.49,-0.22,-1.93,
5.607,-3.54,-15.10,5.00,0.49,-0.17,-1.86,
5.611,-3.54,-15.10,5.00,0.52,-0.14,-1.81,
5.612,-3.77,-15.21,5.20,0.52,-0.14,-1.81,
5.617,-4.09,-15.33,5.28,0.52,-0.14,-1.81,
5.618,-4.09,-15.33,5.28,0.57,-0.12,-1.75,
5.621,-4.09,-15.33,5.28,0.64,-0.11,-1.69,
5.622,-4.47,-15.38,5.34,0.64,-0.11,-1.69,
5.626,-4.47,-15.38,5.34,0.72,-0.12,-1.63,
5.626,-4.98,-15.37,5.28,0.72,-0.12,-1.63,
5.631,-4.98,-15.37,5.28,0.80,-0.14,-1.57,
5.631,-5.58,-15.35,5.17,0.80,-0.14,-1.57,
5.661,-6.26,-15.27,5.02,0.80,-0.14,-1.57,
5.661,-6.26,-15.27,5.02,0.88,-0.17,-1.49,
5.662,-6.26,-15.27,5.02,0.95,-0.20,-1.39,
5.662,-6.90,-15.21,4.82,0.95,-0.20,-1.39,
5.663,-6.90,-15.21,4.82,1.02,-0.24,-1.27,
5.663,-7.64,-15.16,4.59,1.02,-0.24,-1.27,
5.664,-7.64,-15.16,4.59,1.08,-0.28,-1.14,
5.664,-8.35,-15.15,4.32,1.08,-0.28,-1.14,
5.665,-8.99,-15.22,3.96,1.08,-0.28,-1.14,
5.665,-8.99,-15.22,3.96,1.13,-0.33,-0.98,
5.666,-8.99,-15.22,3.96,1.16,-0.38,-0.80,
5.666,-9.59,-15.40,3.58,1.16,-0.38,-0.80,
5.667,-9.59,-15.40,3.58,1.17,-0.44,-0.59,
5.668,-10.15,-15.70,3.20,1.17,-0.44,-0.59,
5.677,-10.15,-15.70,3.20,1.17,-0.50,-0.34,
5.678,-10.63,-15.99,2.74,1.17,-0.50,-0.34,
5.679,-11.00,-16.36,2.24,1.17,-0.50,-0.34,
5.679,-11.00,-16.36,2.24,1.15,-0.56,-0.07,
5.679,-11.29,-16.74,1.72,1.15,-0.56,-0.07,
5.68,-11.29,-16.74,1.72,1.10,-0.64,0.23,
5.713,-11.29,-16.74,1.72,1.03,-0.72,0.55,
5.714,-11.47,-17.02,1.32,1.03,-0.72,0.55,
5.715,-11.54,-17.26,0.97,1.03,-0.72,0.55,
5.715,-11.54,-17.26,0.97,0.93,-0.79,0.89,
5.715,-11.43,-17.43,0.73,0.93,-0.79,0.89,
5.716,-11.43,-17.43,0.73,0.80,-0.85,1.24,
5.716,-11.18,-17.52,0.55,0.80,-0.85,1.24,
5.717,-11.18,-17.52,0.55,0.64,-0.89,1.60,
5.718,-10.83,-17.53,0.48,0.64,-0.89,1.60,
5.719,-10.83,-17.53,0.48,0.47,-0.90,1.96,
5.719,-10.34,-17.55,0.58,0.47,-0.90,1.96,
5.72,-10.34,-17.55,0.58,0.28,-0.87,2.30,
5.72,-9.78,-17.59,0.88,0.28,-0.87,2.30,
5.72,-9.78,-17.59,0.88,0.09,-0.81,2.64,
5.721,-9.14,-17.75,1.17,0.09,-0.81,2.64,
5.721,-9.14,-17.75,1.17,-0.10,-0.71,2.96,
5.729,-9.14,-17.75,1.17,-0.29,-0.59,3.26,
5.73,-8.56,-17.84,1.64,-0.29,-0.59,3.26,
5.731,-8.56,-17.84,1.64,-0.48,-0.45,3.55,
5.731,-7.98,-17.87,2.04,-0.48,-0.45,3.55,
5.733,-7.98,-17.87,2.04,-0.65,-0.31,3.84,
5.733,-7.47,-17.91,2.43,-0.65,-0.31,3.84,
5.762,-6.84,-17.94,2.84,-0.65,-0.31,3.84,
5.763,-6.84,-17.94,2.84,-0.81,-0.17,4.11,
5.763,-6.18,-18.05,3.17,-0.81,-0.17,4.11,
5.764,-6.18,-18.05,3.17,-0.96,-0.04,4.37,
5.764,-5.47,-18.22,3.51,-0.96,-0.04,4.37,
5.765,-5.47,-18.22,3.51,-1.10,0.08,4.63,
5.765,-4.76,-18.34,3.78,-1.10,0.08,4.63,
5.765,-4.76,-18.34,3.78,-1.22,0.17,4.89,
5.766,-3.94,-18.49,3.99,-1.22,0.17,4.89,
5.767,-3.94,-18.49,3.99,-1.34,0.26,5.14,
5.768,-3.00,-18.63,4.17,-1.34,0.26,5.14,
5.768,-3.00,-18.63,4.17,-1.45,0.35,5.39,
5.768,-3.00,-18.63,4.17,-1.55,0.45,5.63,
5.769,-1.97,-18.81,4.29,-1.55,0.45,5.63,
5.772,-1.00,-19.02,4.37,-1.55,0.45,5.63,
5.773,-1.00,-19.02,4.37,-1.65,0.57,5.85,
5.777,-0.04,-19.18,4.39,-1.65,0.57,5.85,
5.778,-0.04,-19.18,4.39,-1.74,0.69,6.06,
5.782,0.89,-19.39,4.39,-1.74,0.69,6.06,
5.782,0.89,-19.39,4.39,-1.84,0.83,6.24,
5.79,1.75,-19.55,4.32,-1.84,0.83,6.24,
5.791,1.75,-19.55,4.32,-1.94,0.99,6.41,
5.792,2.47,-19.63,4.33,-1.94,0.99,6.41,
5.793,2.47,-19.63,4.33,-2.05,1.17,6.55,
5.796,3.06,-19.66,4.28,-2.05,1.17,6.55,
5.797,3.06,-19.66,4.28,-2.16,1.37,6.68,
5.835,3.06,-19.66,4.28,-2.28,1.57,6.79,
5.836,3.56,-19.62,4.22,-2.28,1.57,6.79,
5.836,4.02,-19.58,4.14,-2.28,1.57,6.79,
5.837,4.02,-19.58,4.14,-2.40,1.76,6.89,
5.837,4.37,-19.60,3.98,-2.40,1.76,6.89,
5.837,4.37,-19.60,3.98,-2.53,1.93,6.97,
5.838,4.63,-19.64,3.96,-2.53,1.93,6.97,
5.838,4.63,-19.64,3.96,-2.66,2.09,7.04,
5.838,4.63,-19.64,3.96,-2.79,2.22,7.11,
5.839,4.81,-19.76,3.94,-2.79,2.22,7.11,
5.839,4.81,-19.76,3.94,-2.92,2.34,7.17,
5.84,4.96,-19.96,3.99,-2.92,2.34,7.17,
5.84,4.96,-19.96,3.99,-3.04,2.44,7.24,
5.84,5.04,-20.18,4.06,-3.04,2.44,7.24,
5.841,5.04,-20.18,4.06,-3.14,2.52,7.33,
5.841,5.20,-20.49,4.16,-3.14,2.52,7.33,
5.841,5.20,-20.49,4.16,-3.23,2.56,7.42,
5.842,5.26,-20.83,4.29,-3.23,2.56,7.42,
5.845,5.36,-21.25,4.34,-3.23,2.56,7.42,
5.846,5.36,-21.25,4.34,-3.31,2.59,7.53,
5.85,5.49,-21.76,4.33,-3.31,2.59,7.53,
5.851,5.49,-21.76,4.33,-3.36,2.58,7.65,
5.855,5.49,-21.76,4.33,-3.40,2.56,7.80,
5.856,5.74,-22.28,4.35,-3.40,2.56,7.80,
5.86,5.74,-22.28,4.35,-3.42,2.51,7.96,
5.861,6.06,-22.89,4.38,-3.42,2.51,7.96,
5.865,6.06,-22.89,4.38,-3.43,2.42,8.13,
5.865,6.55,-23.57,4.31,-3.43,2.42,8.13,
5.87,6.55,-23.57,4.31,-3.42,2.31,8.31,
5.871,7.13,-24.28,4.29,-3.42,2.31,8.31,
5.875,7.13,-24.28,4.29,-3.40,2.19,8.50,
5.875,7.84,-24.99,4.28,-3.40,2.19,8.50,
5.917,8.62,-25.75,4.22,-3.40,2.19,8.50,
5.917,8.62,-25.75,4.22,-3.37,2.05,8.69,
5.918,9.66,-26.58,4.14,-3.37,2.05,8.69,
5.919,9.66,-26.58,4.14,-3.33,1.89,8.88,
5.919,10.73,-27.38,4.09,-3.33,1.89,8.88,
5.919,10.73,-27.38,4.09,-3.28,1.73,9.07,
5.92,10.73,-27.38,4.09,-3.23,1.58,9.26,
5.921,11.95,-28.06,4.02,-3.23,1.58,9.26,
5.921,11.95,-28.06,4.02,-3.17,1.45,9.42,
5.922,13.30,-28.67,3.99,-3.17,1.45,9.42,
5.922,14.65,-29.17,3.99,-3.17,1.45,9.42,
5.923,14.65,-29.17,3.99,-3.11,1.33,9.57,
5.923,14.65,-29.17,3.99,-3.05,1.22,9.70,
5.924,16.09,-29.55,3.99,-3.05,1.22,9.70,
5.925,16.09,-29.55,3.99,-2.99,1.12,9.79,
5.925,17.59,-29.77,4.02,-2.99,1.12,9.79,
5.926,17.59,-29.77,4.02,-2.92,1.04,9.86,
5.926,19.04,-29.80,3.97,-2.92,1.04,9.86,
5.927,19.04,-29.80,3.97,-2.87,0.96,9.89,
5.927,20.44,-29.65,3.89,-2.87,0.96,9.89,
5.928,20.44,-29.65,3.89,-2.81,0.90,9.89,
5.928,21.84,-29.31,3.88,-2.81,0.90,9.89,
5.943,23.17,-28.95,3.96,-2.81,0.90,9.89,
5.944,23.17,-28.95,3.96,-2.76,0.82,9.84,
5.945,24.34,-28.51,4.09,-2.76,0.82,9.84,
5.945,24.34,-28.51,4.09,-2.70,0.73,9.76,
5.946,25.30,-27.95,4.25,-2.70,0.73,9.76,
5.946,25.30,-27.95,4.25,-2.63,0.64,9.65,
5.985,25.30,-27.95,4.25,-2.54,0.53,9.52,
5.986,26.01,-27.29,4.46,-2.54,0.53,9.52,
5.987,26.01,-27.29,4.46,-2.44,0.41,9.37,
5.988,26.46,-26.50,4.72,-2.44,0.41,9.37,
5.988,26.46,-26.50,4.72,-2.31,0.26,9.21,
5.989,26.77,-25.75,5.12,-2.31,0.26,9.21,
5.989,26.77,-25.75,5.12,-2.16,0.10,9.07,
5.99,26.92,-25.08,5.61,-2.16,0.10,9.07,
5.99,26.90,-24.08,6.03,-2.16,0.10,9.07,
5.991,26.90,-24.08,6.03,-1.97,-0.07,8.94,
5.991,26.92,-22.76,6.27,-1.97,-0.07,8.94,
5.992,26.92,-22.76,6.27,-1.76,-0.26,8.84,
5.992,26.92,-22.76,6.27,-1.52,-0.49,8.73,
5.992,26.99,-21.43,6.58,-1.52,-0.49,8.73,
5.993,27.05,-20.18,6.82,-1.52,-0.49,8.73,
5.993,27.05,-20.18,6.82,-1.27,-0.72,8.62,
5.994,27.05,-20.18,6.82,-0.99,-0.95,8.49,
5.994,27.19,-18.94,7.03,-0.99,-0.95,8.49,
5.995,27.19,-18.94,7.03,-0.71,-1.17,8.35,
5.995,27.35,-17.58,7.18,-0.71,-1.17,8.35,
5.996,27.40,-16.23,7.21,-0.71,-1.17,8.35,
5.997,27.40,-16.23,7.21,-0.43,-1.36,8.20,
6.002,27.43,-14.80,7.08,-0.43,-1.36,8.20,
6.003,27.43,-14.80,7.08,-0.15,-1.51,8.04,
6.006,27.43,-14.80,7.08,0.09,-1.59,7.86,
6.006,27.37,-13.33,6.75,0.09,-1.59,7.86,
6.011,27.37,-13.33,6.75,0.30,-1.63,7.68,
6.011,27.27,-11.86,6.34,0.30,-1.63,7.68,
6.016,27.27,-11.86,6.34,0.46,-1.63,7.48,
6.016,27.05,-10.46,5.86,0.46,-1.63,7.48,
6.024,27.05,-10.46,5.86,0.56,-1.57,7.27,
6.024,26.72,-9.08,5.40,0.56,-1.57,7.27,
6.025,26.23,-7.76,4.98,0.56,-1.57,7.27,
6.026,26.23,-7.76,4.98,0.61,-1.46,7.07,
6.03,26.23,-7.76,4.98,0.61,-1.29,6.89,
6.031,25.69,-6.51,4.75,0.61,-1.29,6.89,
6.077,25.69,-6.51,4.75,0.58,-1.08,6.73,
6.078,25.18,-5.25,4.52,0.58,-1.08,6.73,
6.079,24.82,-4.06,4.37,0.58,-1.08,6.73,
6.079,24.82,-4.06,4.37,0.50,-0.84,6.59,
6.079,24.67,-2.85,4.32,0.50,-0.84,6.59,
6.08,24.67,-2.85,4.32,0.40,-0.55,6.46,
6.08,24.60,-1.75,4.37,0.40,-0.55,6.46,
6.081,24.60,-1.75,4.37,0.29,-0.25,6.32,
6.081,24.60,-1.75,4.37,0.17,0.06,6.16,
6.081,24.80,-0.80,4.47,0.17,0.06,6.16,
6.082,25.24,0.10,4.68,0.17,0.06,6.16,
6.082,25.24,0.10,4.68,0.04,0.37,5.99,
6.082,25.97,1.04,4.93,0.04,0.37,5.99,
6.083,25.97,1.04,4.93,-0.07,0.65,5.77,
6.083,26.67,1.92,5.19,-0.07,0.65,5.77,
6.083,26.67,1.92,5.19,-0.17,0.92,5.50,
6.084,26.67,1.92,5.19,-0.25,1.19,5.17,
6.084,27.16,2.78,5.53,-0.25,1.19,5.17,
6.085,27.16,2.78,5.53,-0.29,1.43,4.78,
6.085,27.41,3.61,5.93,-0.29,1.43,4.78,
6.085,27.41,3.61,5.93,-0.29,1.64,4.33,
6.086,27.38,4.29,6.25,-0.29,1.64,4.33,
6.089,27.11,4.82,6.45,-0.29,1.64,4.33,
6.09,27.11,4.82,6.45,-0.26,1.84,3.86,
6.094,26.54,5.19,6.45,-0.26,1.84,3.86,
6.094,26.54,5.19,6.45,-0.20,2.02,3.38,
6.098,25.70,5.37,6.30,-0.20,2.02,3.38,
6.099,25.70,5.37,6.30,-0.12,2.18,2.91,
6.107,24.65,5.37,6.00,-0.12,2.18,2.91,
6.108,24.65,5.37,6.00,-0.03,2.31,2.46,
6.109,23.48,5.24,5.59,-0.03,2.31,2.46,
6.11,23.48,5.24,5.59,0.07,2.43,2.05,
6.113,23.48,5.24,5.59,0.16,2.53,1.67,
6.113,22.24,5.06,5.13,0.16,2.53,1.67,
6.14,20.98,4.84,4.68,0.16,2.53,1.67,
6.141,20.98,4.84,4.68,0.24,2.60,1.35,
6.18,19.73,4.70,4.14,0.24,2.60,1.35,
6.181,19.73,4.70,4.14,0.32,2.65,1.08,
6.181,19.73,4.70,4.14,0.38,2.68,0.86,
6.182,18.58,4.62,3.68,0.38,2.68,0.86,
6.183,18.58,4.62,3.68,0.42,2.68,0.69,
6.183,17.44,4.66,3.28,0.42,2.68,0.69,
6.184,16.35,4.77,2.92,0.42,2.68,0.69,
6.184,16.35,4.77,2.92,0.46,2.65,0.55,
6.185,15.34,4.81,2.63,0.46,2.65,0.55,
6.186,15.34,4.81,2.63,0.49,2.61,0.44,
6.186,15.34,4.81,2.63,0.52,2.56,0.37,
6.187,14.35,4.77,2.30,0.52,2.56,0.37,
6.187,14.35,4.77,2.30,0.54,2.49,0.35,
6.188,13.43,4.76,1.97,0.54,2.49,0.35,
6.188,13.43,4.76,1.97,0.55,2.41,0.36,
6.189,12.56,4.82,1.57,0.55,2.41,0.36,
6.189,11.81,4.95,1.21,0.55,2.41,0.36,
6.19,11.81,4.95,1.21,0.55,2.31,0.40,
6.191,11.21,5.18,0.84,0.55,2.31,0.40,
6.191,11.21,5.18,0.84,0.53,2.20,0.47,
6.192,10.78,5.45,0.56,0.53,2.20,0.47,
6.192,10.78,5.45,0.56,0.50,2.08,0.56,
6.192,10.50,5.78,0.35,0.50,2.08,0.56,
6.193,10.50,5.78,0.35,0.45,1.95,0.66,
6.193,10.34,6.05,0.21,0.45,1.95,0.66,
6.194,10.34,6.05,0.21,0.40,1.83,0.77,
6.194,10.40,6.32,0.19,0.40,1.83,0.77,
6.195,10.40,6.32,0.19,0.34,1.69,0.88,
6.195,10.55,6.56,0.19,0.34,1.69,0.88,
6.196,10.55,6.56,0.19,0.28,1.55,0.98,
6.197,10.55,6.56,0.19,0.22,1.40,1.07,
6.198,10.84,6.78,0.28,0.22,1.40,1.07,
6.204,10.84,6.78,0.28,0.16,1.24,1.14,
6.205,11.16,7.00,0.44,0.16,1.24,1.14,
6.207,11.43,7.20,0.60,0.16,1.24,1.14,
6.207,11.43,7.20,0.60,0.11,1.09,1.19,
6.211,11.43,7.20,0.60,0.07,0.92,1.23,
6.212,11.65,7.34,0.80,0.07,0.92,1.23,
6.216,11.65,7.34,0.80,0.03,0.74,1.25,
6.216,11.92,7.51,1.03,0.03,0.74,1.25,
6.225,11.92,7.51,1.03,-0.01,0.56,1.26,
6.225,12.28,7.64,1.37,-0.01,0.56,1.26,
6.227,12.69,7.70,1.62,-0.01,0.56,1.26,
6.228,12.69,7.70,1.62,-0.03,0.38,1.27,
6.23,13.12,7.66,1.88,-0.03,0.38,1.27,
6.231,13.12,7.66,1.88,-0.04,0.21,1.27,
6.266,13.63,7.52,2.15,-0.04,0.21,1.27,
6.267,13.63,7.52,2.15,-0.05,0.04,1.26,
6.267,13.63,7.52,2.15,-0.06,-0.14,1.25,
6.268,14.14,7.33,2.39,-0.06,-0.14,1.25,
6.268,14.60,7.17,2.73,-0.06,-0.14,1.25,
6.269,14.60,7.17,2.73,-0.06,-0.33,1.23,
6.269,15.15,7.16,3.09,-0.06,-0.33,1.23,
6.27,15.15,7.16,3.09,-0.05,-0.51,1.22,
6.27,15.15,7.16,3.09,-0.04,-0.73,1.20,
6.271,15.75,7.26,3.52,-0.04,-0.73,1.20,
6.271,16.24,7.50,3.99,-0.04,-0.73,1.20,
6.272,16.24,7.50,3.99,-0.00,-0.97,1.20,
6.272,16.57,7.86,4.52,-0.00,-0.97,1.20,
6.273,16.57,7.86,4.52,0.05,-1.25,1.20,
6.273,16.57,7.86,4.52,0.12,-1.56,1.23,
6.274,16.87,8.44,4.91,0.12,-1.56,1.23,
6.274,17.35,9.06,5.20,0.12,-1.56,1.23,
6.275,17.35,9.06,5.20,0.20,-1.92,1.27,
6.279,18.48,9.63,5.52,0.20,-1.92,1.27,
6.28,18.48,9.63,5.52,0.28,-2.33,1.31,
6.284,20.29,9.93,6.03,0.28,-2.33,1.31,
6.284,20.29,9.93,6.03,0.38,-2.77,1.31,
6.292,22.46,9.94,6.58,0.38,-2.77,1.31,
6.294,22.46,9.94,6.58,0.50,-3.19,1.22,
6.294,22.46,9.94,6.58,0.66,-3.56,1.00,
6.294,24.70,9.73,7.06,0.66,-3.56,1.00,
6.299,26.61,9.36,7.40,0.66,-3.56,1.00,
6.299,26.61,9.36,7.40,0.85,-3.88,0.65,
6.308,28.05,8.86,7.57,0.85,-3.88,0.65,
6.309,28.05,8.86,7.57,1.05,-4.13,0.18,
6.309,28.89,8.30,7.58,1.05,-4.13,0.18,
6.309,28.89,8.30,7.58,1.26,-4.30,-0.38,
6.314,29.06,7.72,7.41,1.26,-4.30,-0.38,
6.315,29.06,7.72,7.41,1.46,-4.40,-1.01,
6.33,28.67,7.10,7.06,1.46,-4.40,-1.01,
6.331,28.67,7.10,7.06,1.64,-4.44,-1.65,
6.332,28.67,7.10,7.06,1.77,-4.44,-2.29,
6.333,27.73,6.46,6.50,1.77,-4.44,-2.29,
6.334,27.73,6.46,6.50,1.86,-4.42,-2.89,
6.334,26.46,5.70,5.71,1.86,-4.42,-2.89,
6.335,26.46,5.70,5.71,1.88,-4.40,-3.43,
6.336,25.11,4.81,4.74,1.88,-4.40,-3.43,
6.338,25.11,4.81,4.74,1.84,-4.40,-3.92,
6.339,23.81,3.88,3.82,1.84,-4.40,-3.92,
6.343,22.64,2.83,2.99,1.84,-4.40,-3.92,
6.344,22.64,2.83,2.99,1.72,-4.40,-4.35,
6.347,21.63,1.61,2.25,1.72,-4.40,-4.35,
6.348,21.63,1.61,2.25,1.53,-4.40,-4.74,
6.384,21.63,1.61,2.25,1.29,-4.40,-5.07,
6.385,20.90,0.37,1.66,1.29,-4.40,-5.07,
6.386,20.90,0.37,1.66,1.00,-4.37,-5.36,
6.387,20.34,-0.99,1.31,1.00,-4.37,-5.36,
6.387,19.91,-2.35,1.19,1.00,-4.37,-5.36,
6.388,19.91,-2.35,1.19,0.68,-4.32,-5.61,
6.423,19.91,-2.35,1.19,0.34,-4.24,-5.81,
6.423,19.55,-3.72,1.28,0.34,-4.24,-5.81,
6.424,19.55,-3.72,1.28,-0.01,-4.11,-5.98,
6.425,19.37,-4.98,1.56,-0.01,-4.11,-5.98,
6.425,19.37,-4.98,1.56,-0.35,-3.94,-6.12,
6.426,19.23,-6.18,2.02,-0.35,-3.94,-6.12,
6.426,19.23,-6.18,2.02,-0.68,-3.76,-6.23,
6.427,19.14,-7.30,2.60,-0.68,-3.76,-6.23,
6.428,19.14,-7.30,2.60,-0.97,-3.56,-6.32,
6.428,19.19,-8.40,3.21,-0.97,-3.56,-6.32,
6.429,19.19,-8.40,3.21,-1.24,-3.37,-6.40,
6.429,19.39,-9.57,3.87,-1.24,-3.37,-6.40,
6.43,19.78,-10.77,4.63,-1.24,-3.37,-6.40,
6.43,19.78,-10.77,4.63,-1.46,-3.20,-6.47,
6.431,19.78,-10.77,4.63,-1.65,-3.02,-6.53,
6.432,20.14,-11.96,5.37,-1.65,-3.02,-6.53,
6.432,20.14,-11.96,5.37,-1.79,-2.87,-6.61,
6.433,20.62,-13.09,6.07,-1.79,-2.87,-6.61,
6.433,21.14,-14.22,6.67,-1.79,-2.87,-6.61,
6.434,21.14,-14.22,6.67,-1.90,-2.74,-6.71,
6.435,21.14,-14.22,6.67,-1.98,-2.64,-6.82,
6.435,21.66,-15.41,7.20,-1.98,-2.64,-6.82,
6.436,21.66,-15.41,7.20,-2.02,-2.58,-6.94,
6.436,22.24,-16.64,7.62,-2.02,-2.58,-6.94,
6.437,22.73,-17.89,7.99,-2.02,-2.58,-6.94,
6.438,22.73,-17.89,7.99,-2.04,-2.54,-7.07,
6.438,23.22,-19.05,8.40,-2.04,-2.54,-7.07,
6.439,23.22,-19.05,8.40,-2.04,-2.52,-7.21,
6.44,23.53,-20.10,8.78,-2.04,-2.52,-7.21,
6.44,23.53,-20.10,8.78,-2.03,-2.48,-7.36,
6.441,23.80,-21.01,9.02,-2.03,-2.48,-7.36,
6.441,23.80,-21.01,9.02,-1.99,-2.42,-7.53,
6.445,23.80,-21.01,9.02,-1.94,-2.34,-7.70,
6.446,23.99,-21.91,9.22,-1.94,-2.34,-7.70,
6.45,23.99,-21.91,9.22,-1.87,-2.22,-7.88,
6.451,24.17,-22.84,9.24,-1.87,-2.22,-7.88,
6.459,24.17,-22.84,9.24,-1.79,-2.09,-8.07,
6.46,24.44,-23.88,9.21,-1.79,-2.09,-8.07,
6.46,24.44,-23.88,9.21,-1.72,-1.92,-8.27,
6.461,24.39,-24.68,9.08,-1.72,-1.92,-8.27,
6.464,24.39,-24.68,9.08,-1.65,-1.71,-8.49,
6.465,23.91,-25.37,8.87,-1.65,-1.71,-8.49,
6.493,23.91,-25.37,8.87,-1.60,-1.47,-8.71,
6.494,23.36,-26.19,8.66,-1.60,-1.47,-8.71,
6.495,23.36,-26.19,8.66,-1.55,-1.20,-8.91,
6.495,22.92,-27.06,8.54,-1.55,-1.20,-8.91,
6.496,22.42,-28.05,8.55,-1.55,-1.20,-8.91,
6.496,22.42,-28.05,8.55,-1.51,-0.92,-9.11,
6.497,21.72,-28.90,8.55,-1.51,-0.92,-9.11,
6.497,21.72,-28.90,8.55,-1.46,-0.60,-9.28,
6.498,20.95,-29.64,8.58,-1.46,-0.60,-9.28,
6.498,20.95,-29.64,8.58,-1.39,-0.27,-9.45,
6.499,19.90,-30.21,8.51,-1.39,-0.27,-9.45,
6.499,19.90,-30.21,8.51,-1.32,0.09,-9.59,
6.5,19.90,-30.21,8.51,-1.22,0.44,-9.71,
6.5,18.66,-30.72,8.41,-1.22,0.44,-9.71,
6.504,17.29,-31.15,8.35,-1.22,0.44,-9.71,
6.505,17.29,-31.15,8.35,-1.10,0.79,-9.81,
6.508,17.29,-31.15,8.35,-0.96,1.11,-9.87,
6.509,15.92,-31.53,8.24,-0.96,1.11,-9.87,
6.514,14.59,-31.86,8.17,-0.96,1.11,-9.87,
6.514,14.59,-31.86,8.17,-0.79,1.41,-9.88,
6.52,14.59,-31.86,8.17,-0.58,1.68,-9.84,
6.521,13.17,-32.08,8.09,-0.58,1.68,-9.84,
6.523,13.17,-32.08,8.09,-0.35,1.93,-9.77,
6.524,11.64,-32.21,8.00,-0.35,1.93,-9.77,
6.528,11.64,-32.21,8.00,-0.08,2.15,-9.64,
6.528,9.98,-32.19,7.93,-0.08,2.15,-9.64,
6.533,9.98,-32.19,7.93,0.23,2.32,-9.46,
6.533,8.18,-31.99,7.82,0.23,2.32,-9.46,
6.543,8.18,-31.99,7.82,0.56,2.45,-9.24,
6.544,6.25,-31.57,7.69,0.56,2.45,-9.24,
6.545,6.25,-31.57,7.69,0.93,2.52,-8.95,
6.545,4.26,-30.95,7.45,0.93,2.52,-8.95,
6.548,4.26,-30.95,7.45,1.32,2.51,-8.61,
6.548,2.42,-30.20,7.07,1.32,2.51,-8.61,
6.584,0.74,-29.36,6.46,1.32,2.51,-8.61,
6.585,0.74,-29.36,6.46,1.70,2.43,-8.23,
6.586,-0.62,-28.51,5.73,1.70,2.43,-8.23,
6.586,-0.62,-28.51,5.73,2.06,2.28,-7.81,
6.587,-1.62,-27.64,5.03,2.06,2.28,-7.81,
6.587,-1.62,-27.64,5.03,2.39,2.07,-7.36,
6.587,-1.62,-27.64,5.03,2.67,1.83,-6.90,
6.588,-2.27,-26.77,4.30,2.67,1.83,-6.90,
6.588,-2.27,-26.77,4.30,2.91,1.55,-6.46,
6.589,-2.56,-25.81,3.74,2.91,1.55,-6.46,
6.589,-2.53,-24.95,3.38,2.91,1.55,-6.46,
6.59,-2.53,-24.95,3.38,3.10,1.26,-6.03,
6.59,-2.53,-24.95,3.38,3.27,0.98,-5.64,
6.591,-2.28,-24.06,3.20,3.27,0.98,-5.64,
6.591,-2.28,-24.06,3.20,3.42,0.71,-5.31,
6.591,-1.83,-23.25,3.12,3.42,0.71,-5.31,
6.592,-1.26,-22.56,3.05,3.42,0.71,-5.31,
6.592,-1.26,-22.56,3.05,3.55,0.45,-5.02,
6.597,-1.26,-22.56,3.05,3.68,0.21,-4.80,
6.598,-0.75,-21.97,3.05,3.68,0.21,-4.80,
6.601,-0.75,-21.97,3.05,3.79,0.01,-4.62,
6.602,-0.27,-21.54,2.97,3.79,0.01,-4.62,
6.611,-0.27,-21.54,2.97,3.90,-0.19,-4.49,
6.612,0.23,-21.19,2.93,3.90,-0.19,-4.49,
6.644,0.58,-20.88,2.82,3.90,-0.19,-4.49,
6.644,0.58,-20.88,2.82,3.99,-0.36,-4.41,
6.645,0.58,-20.88,2.82,4.07,-0.52,-4.36,
6.645,0.79,-20.62,2.71,4.07,-0.52,-4.36,
6.646,0.79,-20.62,2.71,4.13,-0.66,-4.34,
6.646,0.92,-20.42,2.51,4.13,-0.66,-4.34,
6.646,1.05,-20.32,2.23,4.13,-0.66,-4.34,
6.647,1.05,-20.32,2.23,4.18,-0.79,-4.34,
6.647,1.05,-20.32,2.23,4.20,-0.93,-4.35,
6.648,1.09,-20.31,1.88,4.20,-0.93,-4.35,
6.648,0.98,-20.34,1.50,4.20,-0.93,-4.35,
6.649,0.98,-20.34,1.50,4.20,-1.06,-4.38,
6.649,0.71,-20.41,1.10,4.20,-1.06,-4.38,
6.65,0.71,-20.41,1.10,4.16,-1.18,-4.41,
6.65,0.19,-20.31,0.69,4.16,-1.18,-4.41,
6.651,0.19,-20.31,0.69,4.09,-1.29,-4.45,
6.651,-0.47,-20.18,0.25,4.09,-1.29,-4.45,
6.651,-0.47,-20.18,0.25,3.99,-1.38,-4.48,
6.655,-0.47,-20.18,0.25,3.84,-1.46,-4.49,
6.656,-1.29,-20.05,-0.09,3.84,-1.46,-4.49,
6.66,-1.29,-20.05,-0.09,3.67,-1.52,-4.49,
6.66,-2.13,-19.92,-0.40,3.67,-1.52,-4.49,
6.665,-2.13,-19.92,-0.40,3.46,-1.56,-4.46,
6.665,-3.03,-19.76,-0.66,3.46,-1.56,-4.46,
6.676,-3.03,-19.76,-0.66,3.23,-1.57,-4.41,
6.677,-3.94,-19.53,-0.87,3.23,-1.57,-4.41,
6.677,-3.94,-19.53,-0.87,2.96,-1.56,-4.34,
6.678,-4.78,-19.21,-0.98,2.96,-1.56,-4.34,
6.679,-4.78,-19.21,-0.98,2.69,-1.52,-4.27,
6.679,-5.67,-18.80,-0.99,2.69,-1.52,-4.27,
6.684,-5.67,-18.80,-0.99,2.41,-1.46,-4.20,
6.684,-6.48,-18.41,-1.00,2.41,-1.46,-4.20,
6.709,-6.48,-18.41,-1.00,2.12,-1.38,-4.13,
6.71,-7.26,-18.13,-0.99,2.12,-1.38,-4.13,
6.71,-7.26,-18.13,-0.99,1.84,-1.30,-4.06,
6.711,-8.04,-18.02,-0.99,1.84,-1.30,-4.06,
6.711,-8.79,-18.02,-1.17,1.84,-1.30,-4.06,
6.712,-8.79,-18.02,-1.17,1.55,-1.21,-3.98,
6.712,-8.79,-18.02,-1.17,1.26,-1.12,-3.88,
6.712,-9.57,-18.15,-1.39,1.26,-1.12,-3.88,
6.713,-9.57,-18.15,-1.39,0.94,-1.03,-3.76,
6.713,-10.29,-18.28,-1.58,0.94,-1.03,-3.76,
6.714,-10.29,-18.28,-1.58,0.62,-0.95,-3.61,
6.714,-10.97,-18.48,-1.71,0.62,-0.95,-3.61,
6.718,-11.45,-18.60,-1.67,0.62,-0.95,-3.61,
6.719,-11.45,-18.60,-1.67,0.29,-0.88,-3.42,
6.728,-11.45,-18.60,-1.67,-0.04,-0.81,-3.21,
6.729,-11.74,-18.66,-1.48,-0.04,-0.81,-3.21,
6.73,-11.86,-18.72,-1.12,-0.04,-0.81,-3.21,
6.73,-11.86,-18.72,-1.12,-0.36,-0.73,-2.98,
6.733,-11.86,-18.72,-1.12,-0.67,-0.66,-2.73,
6.733,-11.82,-18.82,-0.63,-0.67,-0.66,-2.73,
6.756,-11.82,-18.82,-0.63,-0.94,-0.59,-2.48,
6.757,-11.63,-18.86,0.03,-0.94,-0.59,-2.48,
6.758,-11.43,-18.78,0.78,-0.94,-0.59,-2.48,
6.759,-11.43,-18.78,0.78,-1.18,-0.51,-2.24,
6.759,-11.24,-18.67,1.60,-1.18,-0.51,-2.24,
6.759,-11.24,-18.67,1.60,-1.38,-0.45,-2.00,
6.76,-11.07,-18.48,2.39,-1.38,-0.45,-2.00,
6.76,-11.07,-18.48,2.39,-1.53,-0.40,-1.78,
6.761,-10.88,-18.33,3.19,-1.53,-0.40,-1.78,
6.761,-10.88,-18.33,3.19,-1.63,-0.36,-1.57,
6.762,-10.88,-18.33,3.19,-1.69,-0.35,-1.38,
6.762,-10.60,-18.23,3.96,-1.69,-0.35,-1.38,
6.767,-10.30,-18.28,4.62,-1.69,-0.35,-1.38,
6.767,-10.30,-18.28,4.62,-1.69,-0.36,-1.19,
6.772,-10.30,-18.28,4.62,-1.64,-0.39,-1.02,
6.773,-10.03,-18.50,5.20,-1.64,-0.39,-1.02,
6.777,-9.95,-18.82,5.57,-1.64,-0.39,-1.02,
6.778,-9.95,-18.82,5.57,-1.55,-0.42,-0.86,
6.782,-9.95,-18.82,5.57,-1.43,-0.45,-0.70,
6.783,-9.94,-19.16,5.81,-1.43,-0.45,-0.70,
6.797,-10.15,-19.49,5.82,-1.43,-0.45,-0.70,
6.799,-10.15,-19.49,5.82,-1.29,-0.48,-0.53,
6.799,-10.56,-19.81,5.72,-1.29,-0.48,-0.53,
6.801,-10.56,-19.81,5.72,-1.15,-0.49,-0.33,
6.802,-10.56,-19.81,5.72,-1.00,-0.51,-0.11,
6.803,-11.06,-20.08,5.52,-1.00,-0.51,-0.11,
6.805,-11.06,-20.08,5.52,-0.86,-0.53,0.14,
6.806,-11.60,-20.32,5.18,-0.86,-0.53,0.14,
6.807,-11.60,-20.32,5.18,-0.74,-0.55,0.43,
6.807,-12.11,-20.50,4.87,-0.74,-0.55,0.43,
6.847,-12.11,-20.50,4.87,-0.63,-0.58,0.75,
6.848,-12.55,-20.62,4.57,-0.63,-0.58,0.75,
6.849,-12.55,-20.62,4.57,-0.53,-0.61,1.10,
6.849,-12.88,-20.70,4.35,-0.53,-0.61,1.10,
6.85,-12.88,-20.70,4.35,-0.46,-0.65,1.48,
6.85,-13.02,-20.63,4.15,-0.46,-0.65,1.48,
6.851,-13.02,-20.63,4.15,-0.39,-0.69,1.88,
6.851,-12.98,-20.57,4.02,-0.39,-0.69,1.88,
6.851,-12.98,-20.57,4.02,-0.34,-0.73,2.30,
6.852,-12.70,-20.46,4.07,-0.34,-0.73,2.30,
6.854,-12.70,-20.46,4.07,-0.30,-0.76,2.71,
6.855,-12.18,-20.33,4.30,-0.30,-0.76,2.71,
6.855,-12.18,-20.33,4.30,-0.26,-0.77,3.12,
6.855,-11.40,-20.20,4.58,-0.26,-0.77,3.12,
6.856,-11.40,-20.20,4.58,-0.21,-0.76,3.52,
6.856,-10.57,-19.99,4.79,-0.21,-0.76,3.52,
6.857,-10.57,-19.99,4.79,-0.17,-0.73,3.89,
6.858,-9.61,-19.73,5.07,-0.17,-0.73,3.89,
6.894,-9.61,-19.73,5.07,-0.12,-0.69,4.25,
6.895,-8.65,-19.53,5.31,-0.12,-0.69,4.25,
6.895,-8.65,-19.53,5.31,-0.08,-0.62,4.58,
6.896,-7.57,-19.36,5.56,-0.08,-0.62,4.58,
6.896,-7.57,-19.36,5.56,-0.04,-0.53,4.88,
6.897,-6.45,-19.23,5.76,-0.04,-0.53,4.88,
6.897,-6.45,-19.23,5.76,0.01,-0.41,5.17,
6.898,-5.24,-19.16,5.93,0.01,-0.41,5.17,
6.898,-5.24,-19.16,5.93,0.04,-0.25,5.42,
6.899,-4.20,-19.08,5.98,0.04,-0.25,5.42,
6.899,-4.20,-19.08,5.98,0.07,-0.06,5.65,
6.9,-3.28,-18.92,6.01,0.07,-0.06,5.65,
6.9,-3.28,-18.92,6.01,0.08,0.17,5.85,
6.901,-2.45,-18.75,5.95,0.08,0.17,5.85,
6.901,-1.61,-18.60,5.80,0.08,0.17,5.85,
6.902,-1.61,-18.60,5.80,0.08,0.43,6.03,
6.902,-1.61,-18.60,5.80,0.07,0.71,6.19,
6.902,-0.81,-18.44,5.58,0.07,0.71,6.19,
6.903,-0.06,-18.30,5.37,0.07,0.71,6.19,
6.903,-0.06,-18.30,5.37,0.03,1.02,6.34,
6.904,-0.06,-18.30,5.37,-0.02,1.31,6.45,
6.904,0.65,-18.10,5.06,-0.02,1.31,6.45,
6.916,0.65,-18.10,5.06,-0.08,1.60,6.54,
6.916,1.30,-17.86,4.79,-0.08,1.60,6.54,
6.917,1.30,-17.86,4.79,-0.16,1.87,6.61,
6.917,1.81,-17.62,4.53,-0.16,1.87,6.61,
6.918,2.23,-17.37,4.29,-0.16,1.87,6.61,
6.918,2.23,-17.37,4.29,-0.24,2.12,6.66,
6.954,2.59,-17.20,4.00,-0.24,2.12,6.66,
6.955,2.59,-17.20,4.00,-0.34,2.35,6.69,
6.956,2.96,-17.14,3.69,-0.34,2.35,6.69,
6.956,2.96,-17.14,3.69,-0.44,2.56,6.71,
6.957,3.23,-17.17,3.43,-0.44,2.56,6.71,
6.957,3.23,-17.17,3.43,-0.56,2.74,6.72,
6.958,3.49,-17.26,3.16,-0.56,2.74,6.72,
6.958,3.49,-17.26,3.16,-0.67,2.88,6.73,
6.958,3.68,-17.38,2.90,-0.67,2.88,6.73,
6.959,3.68,-17.38,2.90,-0.79,3.00,6.73,
6.959,3.84,-17.55,2.63,-0.79,3.00,6.73,
6.96,3.84,-17.55,2.63,-0.91,3.07,6.73,
6.96,3.84,-17.55,2.63,-1.03,3.11,6.75,
6.96,4.05,-17.79,2.44,-1.03,3.11,6.75,
6.961,4.05,-17.79,2.44,-1.14,3.11,6.76,
6.961,4.24,-18.02,2.26,-1.14,3.11,6.76,
6.962,4.53,-18.40,2.10,-1.14,3.11,6.76,
6.962,4.53,-18.40,2.10,-1.25,3.07,6.79,
6.966,4.83,-18.81,1.98,-1.25,3.07,6.79,
6.967,4.83,-18.81,1.98,-1.35,2.99,6.83,
6.977,4.83,-18.81,1.98,-1.44,2.88,6.89,
6.978,5.24,-19.28,1.83,-1.44,2.88,6.89,
6.979,5.74,-19.77,1.68,-1.44,2.88,6.89,
6.979,5.74,-19.77,1.68,-1.53,2.72,6.95,
6.981,6.33,-20.38,1.46,-1.53,2.72,6.95,
6.982,6.33,-20.38,1.46,-1.62,2.53,7.03,
7.015,6.33,-20.38,1.46,-1.71,2.33,7.12,
7.016,6.97,-20.92,1.25,-1.71,2.33,7.12,
7.017,6.97,-20.92,1.25,-1.80,2.10,7.22,
7.017,7.75,-21.52,1.00,-1.80,2.10,7.22,
7.018,7.75,-21.52,1.00,-1.91,1.87,7.32,
7.018,8.65,-22.11,0.68,-1.91,1.87,7.32,
7.019,9.55,-22.77,0.38,-1.91,1.87,7.32,
7.019,9.55,-22.77,0.38,-2.04,1.63,7.42,
7.021,9.55,-22.77,0.38,-2.18,1.41,7.53,
7.022,10.52,-23.45,0.10,-2.18,1.41,7.53,
7.023,10.52,-23.45,0.10,-2.35,1.21,7.64,
7.023,11.40,-24.00,0.03,-2.35,1.21,7.64,
7.024,11.40,-24.00,0.03,-2.54,1.04,7.75,
7.024,12.34,-24.45,0.08,-2.54,1.04,7.75,
7.025,12.34,-24.45,0.08,-2.74,0.87,7.86,
7.025,13.20,-24.82,0.24,-2.74,0.87,7.86,
7.025,14.13,-25.10,0.53,-2.74,0.87,7.86,
7.026,14.13,-25.10,0.53,-2.94,0.72,7.97,
7.054,15.13,-25.35,1.05,-2.94,0.72,7.97,
7.056,15.13,-25.35,1.05,-3.13,0.58,8.08,
7.056,15.13,-25.35,1.05,-3.32,0.45,8.17,
7.056,16.09,-25.59,1.69,-3.32,0.45,8.17,
7.057,16.95,-25.86,2.50,-3.32,0.45,8.17,
7.057,16.95,-25.86,2.50,-3.48,0.32,8.25,
7.058,16.95,-25.86,2.50,-3.61,0.21,8.32,
7.058,17.68,-26.00,3.41,-3.61,0.21,8.32,
7.059,18.36,-26.04,4.42,-3.61,0.21,8.32,
7.059,18.36,-26.04,4.42,-3.70,0.12,8.40,
7.06,18.94,-25.86,5.47,-3.70,0.12,8.40,
7.06,18.94,-25.86,5.47,-3.75,0.04,8.47,
7.061,18.94,-25.86,5.47,-3.75,-0.04,8.54,
7.061,19.50,-25.53,6.62,-3.75,-0.04,8.54,
7.089,19.50,-25.53,6.62,-3.69,-0.11,8.62,
7.09,20.00,-25.10,7.77,-3.69,-0.11,8.62,
7.09,20.00,-25.10,7.77,-3.58,-0.17,8.68,
7.091,20.38,-24.57,8.91,-3.58,-0.17,8.68,
7.091,20.38,-24.57,8.91,-3.41,-0.21,8.73,
7.092,20.57,-23.95,10.13,-3.41,-0.21,8.73,
7.092,20.57,-23.95,10.13,-3.18,-0.22,8.79,
7.093,20.72,-23.28,11.35,-3.18,-0.22,8.79,
7.094,20.72,-23.28,11.35,-2.88,-0.21,8.86,
7.094,21.06,-22.67,12.53,-2.88,-0.21,8.86,
7.095,21.06,-22.67,12.53,-2.52,-0.18,8.95,
7.095,21.45,-21.75,13.63,-2.52,-0.18,8.95,
7.096,21.87,-20.65,14.55,-2.52,-0.18,8.95,
7.096,21.87,-20.65,14.55,-2.10,-0.14,9.02,
7.129,21.87,-20.65,14.55,-1.62,-0.08,9.08,
7.129,22.32,-19.54,15.22,-1.62,-0.08,9.08,
7.13,22.32,-19.54,15.22,-1.11,-0.02,9.10,
7.131,22.89,-18.52,15.71,-1.11,-0.02,9.10,
7.131,22.89,-18.52,15.71,-0.56,0.05,9.09,
7.132,23.43,-17.47,15.94,-0.56,0.05,9.09,
7.133,23.43,-17.47,15.94,0.01,0.11,9.05,
7.133,23.90,-16.41,16.04,0.01,0.11,9.05,
7.134,23.90,-16.41,16.04,0.59,0.17,8.99,
7.134,24.44,-15.39,15.89,0.59,0.17,8.99,
7.135,25.03,-14.46,15.52,0.59,0.17,8.99,
7.135,25.03,-14.46,15.52,1.17,0.23,8.90,
7.136,25.61,-13.53,15.12,1.17,0.23,8.90,
7.136,25.61,-13.53,15.12,1.75,0.26,8.78,
7.137,26.23,-12.66,14.59,1.75,0.26,8.78,
7.137,26.23,-12.66,14.59,2.32,0.29,8.63,
7.138,26.90,-11.84,13.97,2.32,0.29,8.63,
7.138,26.90,-11.84,13.97,2.87,0.29,8.45,
7.143,27.59,-11.00,13.30,2.87,0.29,8.45,
7.144,27.59,-11.00,13.30,3.40,0.28,8.22,
7.148,28.28,-10.12,12.41,3.40,0.28,8.22,
7.149,28.28,-10.12,12.41,3.91,0.25,7.96,
