
time,ax,ay,az,wx,wy,wz,
0.002,-1.91,-1.41,1.32,-0.13,-0.04,0.33,
0.002,-1.91,-1.41,1.32,-0.09,-0.00,0.35,
0.003,-1.91,-1.41,1.32,-0.06,0.06,0.37,
0.003,-1.68,-1.29,1.18,-0.06,0.06,0.37,
0.005,-1.68,-1.29,1.18,-0.04,0.12,0.37,
0.007,-1.51,-1.21,1.06,-0.04,0.12,0.37,
0.012,-1.51,-1.21,1.06,-0.03,0.17,0.36,
0.013,-1.47,-1.16,0.89,-0.03,0.17,0.36,
0.014,-1.47,-1.16,0.89,-0.01,0.22,0.35,
0.014,-1.56,-1.15,0.62,-0.01,0.22,0.35,
0.019,-1.56,-1.15,0.62,-0.01,0.25,0.34,
0.019,-1.75,-1.13,0.24,-0.01,0.25,0.34,
0.025,-2.00,-1.12,-0.06,-0.01,0.25,0.34,
0.025,-2.00,-1.12,-0.06,-0.02,0.26,0.34,
0.029,-2.17,-1.09,-0.22,-0.02,0.26,0.34,
0.029,-2.17,-1.09,-0.22,-0.05,0.26,0.34,
0.033,-2.23,-1.13,-0.23,-0.05,0.26,0.34,
0.034,-2.23,-1.13,-0.23,-0.08,0.26,0.34,
0.039,-2.23,-1.13,-0.23,-0.12,0.25,0.35,
0.04,-2.18,-1.13,-0.14,-0.12,0.25,0.35,
0.043,-2.18,-1.13,-0.14,-0.14,0.24,0.36,
0.044,-2.13,-1.07,0.06,-0.14,0.24,0.36,
0.048,-2.13,-1.07,0.06,-0.16,0.21,0.37,
0.048,-2.10,-1.08,0.21,-0.16,0.21,0.37,
0.053,-2.10,-1.08,0.21,-0.16,0.18,0.36,
0.054,-2.19,-1.04,0.37,-0.16,0.18,0.36,
0.058,-2.31,-1.10,0.52,-0.16,0.18,0.36,
0.058,-2.31,-1.10,0.52,-0.15,0.14,0.36,
0.063,-2.47,-1.12,0.59,-0.15,0.14,0.36,
0.064,-2.47,-1.12,0.59,-0.14,0.08,0.37,
0.068,-2.60,-1.14,0.60,-0.14,0.08,0.37,
0.068,-2.60,-1.14,0.60,-0.12,0.03,0.38,
0.082,-2.79,-1.18,0.54,-0.12,0.03,0.38,
0.082,-2.79,-1.18,0.54,-0.10,-0.03,0.38,
0.083,-2.85,-1.15,0.50,-0.10,-0.03,0.38,
0.083,-2.85,-1.15,0.50,-0.08,-0.08,0.40,
0.085,-2.85,-1.15,0.50,-0.06,-0.12,0.41,
0.085,-2.91,-1.17,0.58,-0.06,-0.12,0.41,
0.087,-2.91,-1.17,0.58,-0.04,-0.17,0.42,
0.088,-2.93,-1.17,0.65,-0.04,-0.17,0.42,
0.092,-2.93,-1.17,0.65,-0.02,-0.22,0.43,
0.093,-3.04,-1.17,0.54,-0.02,-0.22,0.43,
0.097,-3.04,-1.17,0.54,-0.01,-0.25,0.45,
0.098,-3.27,-1.26,0.38,-0.01,-0.25,0.45,
0.103,-3.27,-1.26,0.38,-0.01,-0.27,0.47,
0.103,-3.49,-1.27,0.26,-0.01,-0.27,0.47,
0.118,-3.70,-1.25,0.31,-0.01,-0.27,0.47,
0.119,-3.70,-1.25,0.31,-0.03,-0.27,0.49,
0.119,-3.70,-1.25,0.31,-0.05,-0.26,0.52,
0.119,-3.77,-1.21,0.41,-0.05,-0.26,0.52,
0.12,-3.83,-1.19,0.55,-0.05,-0.26,0.52,
0.12,-3.83,-1.19,0.55,-0.08,-0.25,0.56,
0.127,-3.81,-1.18,0.63,-0.08,-0.25,0.56,
0.127,-3.81,-1.18,0.63,-0.09,-0.25,0.59,
0.128,-3.75,-1.17,0.78,-0.09,-0.25,0.59,
0.128,-3.75,-1.17,0.78,-0.10,-0.23,0.62,
0.131,-3.75,-1.17,0.78,-0.12,-0.21,0.65,
0.132,-3.67,-1.17,0.95,-0.12,-0.21,0.65,
0.136,-3.43,-1.13,1.23,-0.12,-0.21,0.65,
0.136,-3.43,-1.13,1.23,-0.14,-0.17,0.67,
0.141,-3.14,-1.11,1.57,-0.14,-0.17,0.67,
0.142,-3.14,-1.11,1.57,-0.14,-0.13,0.68,
0.146,-3.14,-1.11,1.57,-0.14,-0.07,0.67,
0.147,-2.81,-1.04,1.81,-0.14,-0.07,0.67,
0.151,-2.81,-1.04,1.81,-0.12,-0.00,0.64,
0.151,-2.50,-1.08,1.95,-0.12,-0.00,0.64,
0.156,-2.50,-1.08,1.95,-0.09,0.06,0.59,
0.157,-2.30,-1.06,2.03,-0.09,0.06,0.59,
0.16,-2.19,-1.04,2.02,-0.09,0.06,0.59,
0.161,-2.19,-1.04,2.02,-0.06,0.12,0.53,
0.165,-2.19,-1.04,2.02,-0.03,0.15,0.46,
0.166,-2.17,-1.00,1.97,-0.03,0.15,0.46,
0.17,-2.29,-0.97,1.98,-0.03,0.15,0.46,
0.17,-2.29,-0.97,1.98,0.01,0.17,0.37,
0.182,-2.45,-1.02,1.94,0.01,0.17,0.37,
0.183,-2.45,-1.02,1.94,0.07,0.17,0.29,
0.183,-2.72,-1.14,1.83,0.07,0.17,0.29,
0.183,-2.72,-1.14,1.83,0.12,0.15,0.21,
0.185,-2.72,-1.14,1.83,0.19,0.12,0.14,
0.185,-2.99,-1.25,1.65,0.19,0.12,0.14,
0.19,-2.99,-1.25,1.65,0.25,0.08,0.08,
0.191,-3.21,-1.40,1.44,0.25,0.08,0.08,
0.194,-3.21,-1.40,1.44,0.30,0.03,0.03,
0.195,-3.51,-1.55,1.26,0.30,0.03,0.03,
0.199,-3.51,-1.55,1.26,0.33,-0.02,-0.01,
0.2,-3.79,-1.70,1.19,0.33,-0.02,-0.01,
0.204,-3.79,-1.70,1.19,0.37,-0.07,-0.03,
0.205,-4.01,-1.86,1.11,0.37,-0.07,-0.03,
0.219,-4.26,-2.00,1.06,0.37,-0.07,-0.03,
0.22,-4.26,-2.00,1.06,0.39,-0.12,-0.05,
0.221,-4.49,-2.13,0.98,0.39,-0.12,-0.05,
0.221,-4.49,-2.13,0.98,0.42,-0.17,-0.05,
0.222,-4.49,-2.13,0.98,0.43,-0.22,-0.04,
0.222,-4.66,-2.24,0.92,0.43,-0.22,-0.04,
0.229,-4.71,-2.36,0.95,0.43,-0.22,-0.04,
0.23,-4.71,-2.36,0.95,0.43,-0.26,-0.02,
0.23,-4.71,-2.36,0.95,0.42,-0.28,0.00,
0.231,-4.70,-2.45,1.06,0.42,-0.28,0.00,
0.234,-4.68,-2.55,1.28,0.42,-0.28,0.00,
0.234,-4.68,-2.55,1.28,0.41,-0.29,0.02,
0.24,-4.68,-2.55,1.28,0.41,-0.28,0.05,
0.24,-4.69,-2.71,1.51,0.41,-0.28,0.05,
0.244,-4.69,-2.71,1.51,0.42,-0.25,0.09,
0.245,-4.61,-2.82,1.71,0.42,-0.25,0.09,
0.248,-4.51,-2.99,1.91,0.42,-0.25,0.09,
0.249,-4.51,-2.99,1.91,0.43,-0.20,0.13,
0.253,-4.40,-3.09,2.07,0.43,-0.20,0.13,
0.253,-4.40,-3.09,2.07,0.44,-0.16,0.16,
0.258,-4.33,-3.19,2.29,0.44,-0.16,0.16,
0.259,-4.33,-3.19,2.29,0.47,-0.13,0.17,
0.263,-4.29,-3.25,2.43,0.47,-0.13,0.17,
0.264,-4.29,-3.25,2.43,0.51,-0.10,0.18,
0.268,-4.29,-3.25,2.43,0.55,-0.10,0.18,
0.269,-4.19,-3.34,2.53,0.55,-0.10,0.18,
0.282,-4.03,-3.44,2.59,0.55,-0.10,0.18,
0.283,-4.03,-3.44,2.59,0.60,-0.12,0.17,
0.283,-3.86,-3.56,2.70,0.60,-0.12,0.17,
0.284,-3.86,-3.56,2.70,0.65,-0.15,0.14,
0.284,-3.74,-3.72,2.82,0.65,-0.15,0.14,
0.285,-3.74,-3.72,2.82,0.70,-0.19,0.10,
0.287,-3.74,-3.72,2.82,0.76,-0.24,0.05,
0.288,-3.60,-3.92,2.91,0.76,-0.24,0.05,
0.292,-3.60,-3.92,2.91,0.82,-0.31,-0.02,
0.294,-3.54,-4.16,2.95,0.82,-0.31,-0.02,
0.334,-3.54,-4.16,2.95,0.88,-0.38,-0.08,
0.335,-3.52,-4.50,3.04,0.88,-0.38,-0.08,
0.335,-3.52,-4.50,3.04,0.93,-0.46,-0.14,
0.336,-3.59,-4.80,3.00,0.93,-0.46,-0.14,
0.336,-3.59,-4.80,3.00,0.98,-0.52,-0.21,
0.337,-3.62,-5.09,2.97,0.98,-0.52,-0.21,
0.337,-3.62,-5.09,2.97,1.01,-0.58,-0.26,
0.338,-3.65,-5.38,2.99,1.01,-0.58,-0.26,
0.338,-3.65,-5.38,2.99,1.04,-0.65,-0.29,
0.339,-3.66,-5.61,2.98,1.04,-0.65,-0.29,
0.339,-3.66,-5.61,2.98,1.06,-0.72,-0.32,
0.34,-3.66,-5.83,2.89,1.06,-0.72,-0.32,
0.341,-3.66,-5.83,2.89,1.06,-0.79,-0.35,
0.342,-3.67,-5.95,2.79,1.06,-0.79,-0.35,
0.342,-3.66,-6.13,2.74,1.06,-0.79,-0.35,
0.343,-3.66,-6.13,2.74,1.05,-0.84,-0.37,
0.343,-3.59,-6.27,2.86,1.05,-0.84,-0.37,
0.344,-3.59,-6.27,2.86,1.03,-0.88,-0.38,
0.344,-3.59,-6.27,2.86,0.99,-0.90,-0.38,
0.345,-3.38,-6.39,3.08,0.99,-0.90,-0.38,
0.349,-3.38,-6.39,3.08,0.96,-0.90,-0.38,
0.35,-3.01,-6.50,3.34,0.96,-0.90,-0.38,
0.35,-3.01,-6.50,3.34,0.92,-0.89,-0.38,
0.351,-2.62,-6.58,3.61,0.92,-0.89,-0.38,
0.356,-2.62,-6.58,3.61,0.90,-0.87,-0.39,
0.359,-2.47,-6.69,3.70,0.90,-0.87,-0.39,
0.36,-2.30,-6.69,3.59,0.90,-0.87,-0.39,
0.361,-2.30,-6.69,3.59,0.87,-0.84,-0.39,
0.366,-2.13,-6.64,3.46,0.87,-0.84,-0.39,
0.366,-2.13,-6.64,3.46,0.82,-0.78,-0.39,
0.37,-2.13,-6.64,3.46,0.77,-0.71,-0.40,
0.37,-1.93,-6.58,3.39,0.77,-0.71,-0.40,
0.375,-1.93,-6.58,3.39,0.70,-0.64,-0.40,
0.376,-1.62,-6.61,3.39,0.70,-0.64,-0.40,
0.38,-1.62,-6.61,3.39,0.63,-0.57,-0.42,
0.381,-1.34,-6.63,3.43,0.63,-0.57,-0.42,
0.385,-1.34,-6.63,3.43,0.57,-0.52,-0.44,
0.385,-0.97,-6.69,3.50,0.57,-0.52,-0.44,
0.398,-0.97,-6.69,3.50,0.51,-0.46,-0.47,
0.399,-0.56,-6.66,3.52,0.51,-0.46,-0.47,
0.4,-0.56,-6.66,3.52,0.46,-0.42,-0.51,
0.4,-0.21,-6.58,3.56,0.46,-0.42,-0.51,
0.4,-0.21,-6.58,3.56,0.42,-0.39,-0.55,
0.401,0.09,-6.46,3.56,0.42,-0.39,-0.55,
0.404,0.32,-6.34,3.59,0.42,-0.39,-0.55,
0.405,0.32,-6.34,3.59,0.37,-0.40,-0.61,
0.409,0.32,-6.34,3.59,0.33,-0.40,-0.65,
0.41,0.54,-6.24,3.72,0.33,-0.40,-0.65,
0.414,0.54,-6.24,3.72,0.31,-0.40,-0.70,
0.415,0.80,-6.21,3.90,0.31,-0.40,-0.70,
0.419,0.99,-6.18,4.12,0.31,-0.40,-0.70,
0.419,0.99,-6.18,4.12,0.28,-0.40,-0.74,
0.436,0.99,-6.18,4.12,0.27,-0.41,-0.77,
0.437,1.10,-6.15,4.24,0.27,-0.41,-0.77,
0.437,1.10,-6.15,4.24,0.25,-0.41,-0.78,
0.438,1.13,-6.10,4.25,0.25,-0.41,-0.78,
0.439,1.13,-6.10,4.25,0.23,-0.41,-0.77,
0.439,1.15,-5.97,4.22,0.23,-0.41,-0.77,
0.44,1.22,-5.83,4.18,0.23,-0.41,-0.77,
0.44,1.22,-5.83,4.18,0.20,-0.39,-0.76,
0.445,1.22,-5.83,4.18,0.17,-0.35,-0.73,
0.446,1.45,-5.63,4.14,0.17,-0.35,-0.73,
0.448,1.74,-5.39,4.12,0.17,-0.35,-0.73,
0.449,1.74,-5.39,4.12,0.12,-0.29,-0.69,
0.453,1.74,-5.39,4.12,0.09,-0.21,-0.66,
0.454,1.90,-5.18,4.20,0.09,-0.21,-0.66,
0.458,1.98,-4.92,4.27,0.09,-0.21,-0.66,
0.459,1.98,-4.92,4.27,0.05,-0.12,-0.62,
0.463,2.25,-4.69,4.38,0.05,-0.12,-0.62,
0.463,2.25,-4.69,4.38,0.02,-0.02,-0.58,
0.468,2.25,-4.69,4.38,-0.01,0.06,-0.54,
0.468,2.57,-4.48,4.47,-0.01,0.06,-0.54,
0.472,3.04,-4.24,4.76,-0.01,0.06,-0.54,
0.473,3.04,-4.24,4.76,-0.04,0.09,-0.53,
0.477,3.34,-4.04,5.27,-0.04,0.09,-0.53,
0.478,3.34,-4.04,5.27,-0.04,0.11,-0.53,
0.482,3.73,-3.85,5.81,-0.04,0.11,-0.53,
0.483,3.73,-3.85,5.81,0.00,0.10,-0.55,
0.487,4.24,-3.62,6.00,0.00,0.10,-0.55,
0.488,4.24,-3.62,6.00,0.09,0.04,-0.58,
0.501,4.24,-3.62,6.00,0.21,-0.10,-0.63,
0.502,4.84,-3.29,5.60,0.21,-0.10,-0.63,
0.503,5.28,-3.02,4.87,0.21,-0.10,-0.63,
0.503,5.28,-3.02,4.87,0.33,-0.33,-0.72,
0.504,5.28,-3.02,4.87,0.43,-0.60,-0.82,
0.505,5.50,-2.90,4.17,0.43,-0.60,-0.82,
0.507,5.72,-2.85,3.71,0.43,-0.60,-0.82,
0.509,5.72,-2.85,3.71,0.50,-0.88,-0.93,
0.512,5.72,-2.85,3.71,0.54,-1.16,-1.05,
0.512,5.88,-2.86,3.42,0.54,-1.16,-1.05,
0.516,6.08,-3.01,3.30,0.54,-1.16,-1.05,
0.517,6.08,-3.01,3.30,0.56,-1.42,-1.17,
0.521,6.28,-3.27,3.19,0.56,-1.42,-1.17,
0.522,6.28,-3.27,3.19,0.57,-1.62,-1.27,
0.548,6.28,-3.27,3.19,0.57,-1.75,-1.37,
0.549,6.40,-3.49,3.09,0.57,-1.75,-1.37,
0.55,6.40,-3.49,3.09,0.55,-1.80,-1.45,
0.55,6.21,-3.70,2.72,0.55,-1.80,-1.45,
0.551,5.65,-3.79,2.33,0.55,-1.80,-1.45,
0.551,5.65,-3.79,2.33,0.50,-1.82,-1.49,
0.59,5.65,-3.79,2.33,0.42,-1.79,-1.51,
0.59,4.90,-3.80,1.95,0.42,-1.79,-1.51,
0.591,4.90,-3.80,1.95,0.29,-1.72,-1.47,
0.591,4.12,-3.91,1.63,0.29,-1.72,-1.47,
0.592,4.12,-3.91,1.63,0.12,-1.59,-1.41,
0.592,3.41,-4.04,1.23,0.12,-1.59,-1.41,
0.593,3.41,-4.04,1.23,-0.07,-1.43,-1.32,
0.593,2.84,-4.14,0.95,-0.07,-1.43,-1.32,
0.593,2.84,-4.14,0.95,-0.28,-1.26,-1.22,
0.594,2.54,-4.27,0.85,-0.28,-1.26,-1.22,
0.594,2.49,-4.40,0.89,-0.28,-1.26,-1.22,
0.595,2.49,-4.40,0.89,-0.49,-1.08,-1.09,
0.595,2.49,-4.40,0.89,-0.69,-0.92,-0.97,
0.595,2.56,-4.46,0.96,-0.69,-0.92,-0.97,
0.596,2.56,-4.46,0.96,-0.86,-0.79,-0.87,
0.596,2.68,-4.53,0.97,-0.86,-0.79,-0.87,
0.596,2.80,-4.55,1.10,-0.86,-0.79,-0.87,
0.597,2.80,-4.55,1.10,-1.01,-0.70,-0.77,
0.597,2.80,-4.55,1.10,-1.14,-0.65,-0.69,
0.598,3.10,-4.59,1.30,-1.14,-0.65,-0.69,
0.598,3.69,-4.61,1.50,-1.14,-0.65,-0.69,
0.598,3.69,-4.61,1.50,-1.24,-0.63,-0.63,
0.599,4.38,-4.56,1.89,-1.24,-0.63,-0.63,
0.599,4.38,-4.56,1.89,-1.31,-0.65,-0.59,
0.6,5.17,-4.49,2.38,-1.31,-0.65,-0.59,
0.6,5.17,-4.49,2.38,-1.36,-0.73,-0.60,
0.604,5.96,-4.28,2.74,-1.36,-0.73,-0.60,
0.605,5.96,-4.28,2.74,-1.37,-0.85,-0.63,
0.616,5.96,-4.28,2.74,-1.34,-1.02,-0.70,
0.617,6.68,-4.10,2.86,-1.34,-1.02,-0.70,
0.617,6.68,-4.10,2.86,-1.29,-1.20,-0.80,
0.618,7.34,-4.01,2.85,-1.29,-1.20,-0.80,
0.619,7.34,-4.01,2.85,-1.24,-1.36,-0.94,
0.619,7.85,-4.04,2.60,-1.24,-1.36,-0.94,
0.625,7.85,-4.04,2.60,-1.21,-1.48,-1.10,
0.626,8.10,-4.07,2.11,-1.21,-1.48,-1.10,
0.628,8.04,-4.04,1.65,-1.21,-1.48,-1.10,
0.629,8.04,-4.04,1.65,-1.19,-1.56,-1.27,
0.633,8.04,-4.04,1.65,-1.20,-1.59,-1.44,
0.634,7.54,-4.05,1.25,-1.20,-1.59,-1.44,
0.638,7.54,-4.05,1.25,-1.24,-1.59,-1.59,
0.639,6.73,-4.19,0.96,-1.24,-1.59,-1.59,
0.65,6.73,-4.19,0.96,-1.29,-1.58,-1.71,
0.651,5.82,-4.71,0.77,-1.29,-1.58,-1.71,
0.651,4.58,-5.25,0.77,-1.29,-1.58,-1.71,
0.651,4.58,-5.25,0.77,-1.34,-1.59,-1.78,
0.653,4.58,-5.25,0.77,-1.39,-1.63,-1.79,
0.653,3.45,-5.84,0.88,-1.39,-1.63,-1.79,
0.659,2.77,-6.18,1.22,-1.39,-1.63,-1.79,
0.66,2.77,-6.18,1.22,-1.43,-1.68,-1.73,
0.663,2.74,-6.41,1.63,-1.43,-1.68,-1.73,
0.663,2.74,-6.41,1.63,-1.44,-1.75,-1.64,
0.667,2.74,-6.41,1.63,-1.43,-1.86,-1.56,
0.668,3.15,-6.48,2.26,-1.43,-1.86,-1.56,
0.672,4.05,-6.57,2.97,-1.43,-1.86,-1.56,
0.673,4.05,-6.57,2.97,-1.41,-2.00,-1.50,
0.677,4.05,-6.57,2.97,-1.36,-2.15,-1.49,
0.678,5.36,-6.44,3.59,-1.36,-2.15,-1.49,
0.682,5.36,-6.44,3.59,-1.30,-2.30,-1.54,
0.683,6.88,-6.28,3.87,-1.30,-2.30,-1.54,
0.687,7.79,-6.22,4.24,-1.30,-2.30,-1.54,
0.687,7.79,-6.22,4.24,-1.25,-2.40,-1.66,
0.692,8.39,-6.39,4.71,-1.25,-2.40,-1.66,
0.693,8.39,-6.39,4.71,-1.20,-2.44,-1.82,
0.697,8.39,-6.39,4.71,-1.13,-2.39,-1.98,
0.698,8.70,-6.76,5.09,-1.13,-2.39,-1.98,
0.702,8.23,-7.06,5.11,-1.13,-2.39,-1.98,
0.702,8.23,-7.06,5.11,-1.05,-2.28,-2.13,
0.706,8.23,-7.06,5.11,-0.98,-2.11,-2.23,
0.707,6.88,-7.09,4.94,-0.98,-2.11,-2.23,
0.712,6.88,-7.09,4.94,-0.94,-1.91,-2.26,
0.712,5.09,-6.96,4.97,-0.94,-1.91,-2.26,
0.716,5.09,-6.96,4.97,-0.90,-1.71,-2.23,
0.717,3.68,-6.87,5.22,-0.90,-1.71,-2.23,
0.721,3.68,-6.87,5.22,-0.83,-1.54,-2.15,
0.721,2.65,-6.89,5.40,-0.83,-1.54,-2.15,
0.736,2.65,-6.89,5.40,-0.73,-1.44,-2.02,
0.737,1.51,-7.03,5.29,-0.73,-1.44,-2.02,
0.738,0.12,-7.18,5.05,-0.73,-1.44,-2.02,
0.738,0.12,-7.18,5.05,-0.60,-1.43,-1.83,
0.739,-1.09,-7.31,4.80,-0.60,-1.43,-1.83,
0.74,-1.09,-7.31,4.80,-0.48,-1.50,-1.56,
0.741,-1.78,-7.21,5.00,-0.48,-1.50,-1.56,
0.742,-1.78,-7.21,5.00,-0.36,-1.60,-1.22,
0.781,-1.78,-7.21,5.00,-0.27,-1.74,-0.85,
0.782,-1.91,-6.64,5.33,-0.27,-1.74,-0.85,
0.783,-1.91,-6.64,5.33,-0.17,-1.82,-0.49,
0.783,-2.13,-5.77,5.54,-0.17,-1.82,-0.49,
0.784,-2.13,-5.77,5.54,-0.08,-1.78,-0.13,
0.785,-2.67,-4.98,5.23,-0.08,-1.78,-0.13,
0.786,-2.67,-4.98,5.23,-0.04,-1.63,0.22,
0.786,-3.18,-4.01,4.12,-0.04,-1.63,0.22,
0.787,-3.18,-4.01,4.12,-0.07,-1.38,0.58,
0.787,-2.72,-3.27,2.29,-0.07,-1.38,0.58,
0.788,-1.80,-3.07,0.16,-0.07,-1.38,0.58,
0.789,-1.80,-3.07,0.16,-0.20,-1.00,0.90,
0.79,-1.80,-3.07,0.16,-0.45,-0.51,1.15,
0.79,-0.85,-3.84,-1.39,-0.45,-0.51,1.15,
0.791,-0.85,-3.84,-1.39,-0.74,0.00,1.32,
0.791,-0.08,-5.60,-1.59,-0.74,0.00,1.32,
0.833,-0.08,-5.60,-1.59,-0.97,0.38,1.43,
0.834,-0.00,-7.33,-0.24,-0.97,0.38,1.43,
0.834,-0.00,-7.33,-0.24,-1.04,0.50,1.57,
0.835,-0.82,-8.70,1.65,-1.04,0.50,1.57,
0.835,-0.82,-8.70,1.65,-0.93,0.39,1.76,
0.836,-2.21,-9.48,3.54,-0.93,0.39,1.76,
0.836,-3.41,-9.83,5.98,-0.93,0.39,1.76,
0.836,-3.41,-9.83,5.98,-0.69,0.21,2.03,
0.837,-3.41,-9.83,5.98,-0.35,0.05,2.34,
0.837,-4.44,-10.00,8.50,-0.35,0.05,2.34,
0.838,-5.05,-9.79,9.94,-0.35,0.05,2.34,
0.839,-5.05,-9.79,9.94,0.10,0.01,2.73,
0.839,-5.05,-9.79,9.94,0.59,0.20,3.20,
0.84,-5.26,-8.65,9.23,0.59,0.20,3.20,
0.841,-4.89,-7.10,7.19,0.59,0.20,3.20,
0.841,-4.89,-7.10,7.19,1.04,0.60,3.70,
0.842,-3.38,-5.27,4.39,1.04,0.60,3.70,
0.842,-3.38,-5.27,4.39,1.38,1.10,4.18,
0.843,-1.12,-2.96,-0.02,1.38,1.10,4.18,
0.843,-1.12,-2.96,-0.02,1.65,1.63,4.62,
0.844,-1.12,-2.96,-0.02,1.81,2.07,4.98,
0.845,0.50,-0.43,-5.06,1.81,2.07,4.98,
0.845,0.50,-0.43,-5.06,1.85,2.27,5.25,
0.845,1.52,2.15,-9.13,1.85,2.27,5.25,
0.846,1.52,2.15,-9.13,1.81,2.22,5.47,
0.846,3.22,4.91,-11.88,1.81,2.22,5.47,
0.851,6.07,7.93,-15.19,1.81,2.22,5.47,
0.852,6.07,7.93,-15.19,1.76,1.98,5.61,
0.853,8.73,10.10,-19.42,1.76,1.98,5.61,
0.854,8.73,10.10,-19.42,1.64,1.60,5.58,
0.859,10.22,11.90,-22.97,1.64,1.60,5.58,
0.86,10.22,11.90,-22.97,1.42,1.08,5.40,
0.863,10.28,13.39,-24.71,1.42,1.08,5.40,
0.864,10.28,13.39,-24.71,1.07,0.46,5.12,
0.868,8.77,14.23,-24.04,1.07,0.46,5.12,
0.869,8.77,14.23,-24.04,0.64,-0.13,4.85,
0.872,6.64,14.05,-21.85,0.64,-0.13,4.85,
0.873,6.64,14.05,-21.85,0.22,-0.59,4.67,
0.881,4.37,13.44,-19.66,0.22,-0.59,4.67,
0.882,4.37,13.44,-19.66,-0.14,-0.90,4.64,
0.883,4.37,13.44,-19.66,-0.45,-1.05,4.80,
0.883,1.40,12.51,-17.41,-0.45,-1.05,4.80,
0.887,1.40,12.51,-17.41,-0.71,-1.07,5.15,
0.888,-1.21,11.77,-15.13,-0.71,-1.07,5.15,
0.904,-1.21,11.12,-13.51,-0.71,-1.07,5.15,
0.905,-1.21,11.12,-13.51,-0.93,-0.96,5.69,
0.905,-1.21,11.12,-13.51,-1.09,-0.82,6.32,
0.906,3.65,10.63,-13.08,-1.09,-0.82,6.32,
0.906,3.65,10.63,-13.08,-1.19,-0.82,6.79,
0.907,11.72,10.64,-13.26,-1.19,-0.82,6.79,
0.908,11.72,10.64,-13.26,-1.22,-0.98,6.93,
0.908,20.02,10.72,-13.52,-1.22,-0.98,6.93,
0.917,20.02,10.72,-13.52,-1.24,-1.29,6.64,
0.918,25.33,12.19,-12.32,-1.24,-1.29,6.64,
0.919,19.03,19.31,-7.56,-1.24,-1.29,6.64,
0.919,19.03,19.31,-7.56,-1.24,-1.55,5.98,
0.921,19.03,19.31,-7.56,-1.24,-1.44,5.32,
0.921,-4.31,26.53,-2.97,-1.24,-1.44,5.32,
0.942,-4.31,26.53,-2.97,-1.32,-1.02,5.56,
0.943,-23.39,30.25,6.65,-1.32,-1.02,5.56,
0.944,-23.39,30.25,6.65,-1.15,-0.10,6.56,
0.945,-18.09,30.17,16.34,-1.15,-0.10,6.56,
0.945,-18.09,30.17,16.34,-0.33,1.08,7.22,
0.945,0.28,30.09,15.05,-0.33,1.08,7.22,
0.946,0.28,30.09,15.05,0.96,1.64,7.07,
0.946,16.65,30.01,-5.94,0.96,1.64,7.07,
0.947,16.65,30.01,-5.94,1.72,1.39,6.50,
0.947,23.34,29.95,-38.64,1.72,1.39,6.50,
0.967,23.34,29.95,-38.64,0.96,1.12,5.86,
0.968,4.47,29.90,-39.71,0.96,1.12,5.86,
0.968,4.47,29.90,-39.71,-1.17,1.17,6.06,
0.969,-39.29,29.87,-39.71,-1.17,1.17,6.06,
0.969,-39.61,29.85,-17.05,-1.17,1.17,6.06,
0.97,-39.61,29.85,-17.05,-3.70,1.31,8.25,
0.97,38.29,29.87,-19.15,-3.70,1.31,8.25,
0.971,38.29,29.87,-19.15,-4.67,1.39,11.20,
0.971,38.29,29.87,-19.15,-4.37,1.20,11.17,
0.972,37.74,29.91,-40.21,-4.37,1.20,11.17,
0.993,37.38,5.94,-40.40,-4.37,1.20,11.17,
0.994,37.38,5.94,-40.40,-5.17,1.19,6.94,
0.995,37.31,-4.81,-40.72,-5.17,1.19,6.94,
0.995,37.31,-4.81,-40.72,-8.00,0.97,0.71,
0.996,37.48,-14.83,21.91,-8.00,0.97,0.71,
0.996,37.48,-14.83,21.91,-10.83,0.77,-4.72,
0.997,7.29,-36.42,36.69,-10.83,0.77,-4.72,
0.997,7.29,-36.42,36.69,-10.71,0.57,-7.26,
0.998,7.29,-36.42,36.69,-6.92,0.07,-7.74,
0.998,-8.65,-48.12,36.34,-6.92,0.07,-7.74,
1.014,-8.65,-48.12,36.34,-1.70,-0.06,-7.58,
1.015,-27.57,-48.07,36.22,-1.70,-0.06,-7.58,
1.016,-27.57,-48.07,36.22,2.15,0.61,-6.65,
1.016,-39.60,-48.06,36.27,2.15,0.61,-6.65,
1.017,-39.31,-48.05,36.38,2.15,0.61,-6.65,
1.017,-39.31,-48.05,36.38,3.66,2.17,-4.84,
1.018,-37.86,-45.96,24.22,3.66,2.17,-4.84,
1.019,-37.86,-45.96,24.22,3.72,4.33,-2.79,
1.019,-37.86,-45.96,24.22,3.22,6.33,-0.85,
1.02,-28.46,-40.98,6.33,3.22,6.33,-0.85,
1.039,-17.21,-33.84,-8.55,3.22,6.33,-0.85,
1.04,-17.21,-33.84,-8.55,2.49,7.48,0.66,
1.075,-10.16,-24.48,-17.86,2.49,7.48,0.66,
1.075,-10.16,-24.48,-17.86,1.65,7.36,1.50,
1.076,-8.74,-14.91,-20.23,1.65,7.36,1.50,
1.076,-8.74,-14.91,-20.23,0.72,6.46,1.76,
1.077,-8.74,-14.91,-20.23,-0.26,5.73,1.75,
1.077,-10.38,-6.27,-16.47,-0.26,5.73,1.75,
1.078,-10.38,-6.27,-16.47,-1.13,5.53,1.68,
1.078,-14.57,0.97,-8.73,-1.13,5.53,1.68,
1.079,-19.97,7.37,-1.93,-1.13,5.53,1.68,
1.079,-19.97,7.37,-1.93,-1.74,5.72,1.71,
1.08,-20.50,12.24,1.09,-1.74,5.72,1.71,
1.08,-20.50,12.24,1.09,-2.09,5.98,1.99,
1.081,-15.09,15.97,3.02,-2.09,5.98,1.99,
1.081,-15.09,15.97,3.02,-2.33,5.96,2.40,
1.082,-6.92,19.39,5.26,-2.33,5.96,2.40,
1.082,-6.92,19.39,5.26,-2.47,5.64,2.66,
1.082,2.85,21.20,7.34,-2.47,5.64,2.66,
1.083,2.85,21.20,7.34,-2.50,5.26,2.64,
1.083,11.53,21.11,10.05,-2.50,5.26,2.64,
1.084,11.53,21.11,10.05,-2.42,5.08,2.23,
1.085,11.53,21.11,10.05,-2.21,5.13,1.44,
1.085,16.31,19.82,13.42,-2.21,5.13,1.44,
1.086,16.31,19.82,13.42,-1.79,5.25,0.46,
1.086,17.94,17.27,17.19,-1.79,5.25,0.46,
1.087,17.94,17.27,17.19,-1.10,5.23,-0.48,
1.088,16.80,14.47,20.00,-1.10,5.23,-0.48,
1.095,14.14,11.79,19.65,-1.10,5.23,-0.48,
1.096,14.14,11.79,19.65,-0.15,4.99,-1.21,
1.109,14.14,11.79,19.65,0.85,4.61,-1.62,
1.109,13.51,9.15,14.07,0.85,4.61,-1.62,
1.11,13.51,9.15,14.07,1.65,4.29,-1.78,
1.111,13.89,6.71,5.31,1.65,4.29,-1.78,
1.111,13.89,6.71,5.31,2.05,4.13,-1.85,
1.112,13.57,4.59,-2.43,2.05,4.13,-1.85,
1.112,13.57,4.59,-2.43,2.09,4.11,-1.81,
1.112,12.48,2.97,-8.89,2.09,4.11,-1.81,
1.129,12.48,2.97,-8.89,1.90,4.17,-1.66,
1.13,11.26,0.81,-13.17,1.90,4.17,-1.66,
1.131,11.26,0.81,-13.17,1.62,4.19,-1.41,
1.131,10.36,-0.33,-15.58,1.62,4.19,-1.41,
1.131,11.07,-0.02,-16.85,1.62,4.19,-1.41,
1.132,11.07,-0.02,-16.85,1.36,3.99,-1.08,
1.132,13.55,1.05,-17.98,1.36,3.99,-1.08,
1.133,13.55,1.05,-17.98,1.16,3.57,-0.72,
1.153,13.55,1.05,-17.98,1.00,3.09,-0.45,
1.154,16.99,2.89,-19.85,1.00,3.09,-0.45,
1.155,16.99,2.89,-19.85,0.79,2.68,-0.30,
1.155,20.31,4.19,-21.38,0.79,2.68,-0.30,
1.156,20.31,4.19,-21.38,0.50,2.37,-0.31,
1.156,22.32,4.34,-21.00,0.50,2.37,-0.31,
1.156,22.32,4.34,-21.00,0.22,2.15,-0.48,
1.157,21.26,3.50,-19.27,0.22,2.15,-0.48,
1.157,18.22,2.28,-16.95,0.22,2.15,-0.48,
1.158,18.22,2.28,-16.95,0.02,2.02,-0.66,
1.168,18.22,2.28,-16.95,-0.04,1.87,-0.75,
1.17,14.82,1.54,-14.74,-0.04,1.87,-0.75,
1.17,11.47,0.87,-13.13,-0.04,1.87,-0.75,
1.171,11.47,0.87,-13.13,0.01,1.67,-0.75,
1.171,11.47,0.87,-13.13,0.12,1.46,-0.66,
1.171,8.33,0.19,-12.76,0.12,1.46,-0.66,
1.175,8.33,0.19,-12.76,0.22,1.28,-0.48,
1.185,5.93,-0.57,-13.08,0.22,1.28,-0.48,
1.186,4.50,-1.69,-12.84,0.22,1.28,-0.48,
1.186,4.50,-1.69,-12.84,0.23,1.18,-0.27,
1.187,4.50,-1.69,-12.84,0.17,1.16,-0.11,
1.187,3.61,-3.26,-11.65,0.17,1.16,-0.11,
1.189,3.61,-3.26,-11.65,0.10,1.22,-0.05,
1.19,2.47,-4.96,-9.45,0.10,1.22,-0.05,
1.21,2.47,-4.96,-9.45,0.07,1.37,-0.05,
1.211,0.77,-6.72,-8.36,0.07,1.37,-0.05,
1.211,0.77,-6.72,-8.36,0.07,1.48,-0.05,
1.211,-1.52,-7.96,-9.51,0.07,1.48,-0.05,
1.212,-3.75,-8.47,-11.35,0.07,1.48,-0.05,
1.212,-3.75,-8.47,-11.35,-0.01,1.46,0.04,
1.212,-3.75,-8.47,-11.35,-0.20,1.23,0.22,
1.213,-5.60,-8.53,-12.93,-0.20,1.23,0.22,
1.214,-6.53,-8.00,-14.23,-0.20,1.23,0.22,
1.215,-6.53,-8.00,-14.23,-0.48,0.74,0.50,
1.22,-6.78,-7.12,-15.09,-0.48,0.74,0.50,
1.22,-6.78,-7.12,-15.09,-0.85,0.09,0.84,
1.223,-6.67,-6.33,-14.46,-0.85,0.09,0.84,
1.224,-6.67,-6.33,-14.46,-1.32,-0.54,1.21,
1.233,-6.67,-6.33,-14.46,-1.87,-0.98,1.60,
1.234,-5.81,-5.45,-12.23,-1.87,-0.98,1.60,
1.234,-5.81,-5.45,-12.23,-2.42,-1.19,1.98,
1.235,-5.13,-4.61,-9.29,-2.42,-1.19,1.98,
1.238,-4.59,-3.80,-6.04,-2.42,-1.19,1.98,
1.239,-4.59,-3.80,-6.04,-2.94,-1.22,2.36,
1.253,-3.73,-2.81,-2.88,-2.94,-1.22,2.36,
1.254,-3.73,-2.81,-2.88,-3.38,-1.11,2.75,
1.254,-2.19,-2.11,0.66,-3.38,-1.11,2.75,
1.255,-2.19,-2.11,0.66,-3.73,-0.93,3.11,
1.255,-0.77,-1.44,4.49,-3.73,-0.93,3.11,
1.255,-0.77,-1.44,4.49,-3.97,-0.75,3.38,
1.258,-0.77,-1.44,4.49,-4.07,-0.56,3.56,
1.258,-0.64,-1.02,7.73,-4.07,-0.56,3.56,
1.271,-0.64,-1.02,7.73,-4.06,-0.32,3.70,
1.272,-1.51,-1.20,9.92,-4.06,-0.32,3.70,
1.272,-1.51,-1.20,9.92,-4.02,0.03,3.87,
1.273,-1.66,-1.71,11.82,-4.02,0.03,3.87,
1.317,-0.89,-2.28,13.40,-4.02,0.03,3.87,
1.317,-0.89,-2.28,13.40,-3.94,0.54,4.04,
1.318,-0.89,-2.28,13.40,-3.84,1.17,4.17,
1.318,-0.19,-2.73,14.28,-3.84,1.17,4.17,
1.319,-0.19,-2.73,14.28,-3.72,1.91,4.24,
1.32,0.15,-3.07,14.51,-3.72,1.91,4.24,
1.32,0.49,-3.47,14.66,-3.72,1.91,4.24,
1.321,0.49,-3.47,14.66,-3.59,2.69,4.27,
1.322,0.49,-3.47,14.66,-3.46,3.43,4.27,
1.322,1.39,-3.51,14.84,-3.46,3.43,4.27,
1.323,1.39,-3.51,14.84,-3.30,4.07,4.24,
1.324,2.75,-3.64,14.47,-3.30,4.07,4.24,
1.324,2.75,-3.64,14.47,-3.09,4.57,4.15,
1.325,4.12,-3.69,13.28,-3.09,4.57,4.15,
1.325,4.12,-3.69,13.28,-2.84,4.89,4.01,
1.326,4.97,-3.64,11.32,-2.84,4.89,4.01,
1.326,4.97,-3.64,11.32,-2.58,5.03,3.83,
1.327,5.97,-3.49,8.62,-2.58,5.03,3.83,
1.327,5.97,-3.49,8.62,-2.35,4.94,3.66,
1.328,7.67,-3.04,5.21,-2.35,4.94,3.66,
1.328,7.67,-3.04,5.21,-2.20,4.67,3.46,
1.329,9.83,-2.58,1.24,-2.20,4.67,3.46,
1.329,9.83,-2.58,1.24,-2.16,4.23,3.20,
1.33,11.59,-2.38,-2.91,-2.16,4.23,3.20,
1.34,11.59,-2.38,-2.91,-2.26,3.70,2.86,
1.341,11.86,-2.42,-6.71,-2.26,3.70,2.86,
1.341,9.92,-2.90,-9.52,-2.26,3.70,2.86,
1.342,9.92,-2.90,-9.52,-2.51,3.22,2.49,
1.342,6.40,-3.52,-10.74,-2.51,3.22,2.49,
1.343,6.40,-3.52,-10.74,-2.91,2.86,2.16,
1.371,6.40,-3.52,-10.74,-3.39,2.64,1.95,
1.372,6.40,-3.52,-10.74,-3.90,2.51,1.88,
1.372,2.17,-4.00,-10.16,-3.90,2.51,1.88,
1.373,-1.73,-4.53,-8.11,-3.90,2.51,1.88,
1.373,-5.10,-5.16,-5.59,-3.90,2.51,1.88,
1.373,-5.10,-5.16,-5.59,-4.34,2.46,1.94,
1.374,-5.10,-5.16,-5.59,-4.69,2.46,2.11,
1.374,-8.67,-5.68,-3.11,-4.69,2.46,2.11,
1.375,-12.27,-5.95,-0.43,-4.69,2.46,2.11,
1.375,-12.27,-5.95,-0.43,-4.93,2.52,2.41,
1.375,-14.52,-5.93,2.22,-4.93,2.52,2.41,
1.376,-14.52,-5.93,2.22,-5.09,2.69,2.81,
1.377,-14.52,-5.93,2.22,-5.18,2.93,3.31,
1.378,-15.08,-5.79,4.30,-5.18,2.93,3.31,
1.399,-15.08,-5.79,4.30,-5.21,3.32,3.84,
1.4,-14.19,-5.85,5.20,-5.21,3.32,3.84,
1.4,-12.37,-5.79,5.28,-5.21,3.32,3.84,
1.401,-12.37,-5.79,5.28,-5.25,3.85,4.34,
1.401,-9.91,-5.36,5.08,-5.25,3.85,4.34,
1.401,-9.91,-5.36,5.08,-5.33,4.46,4.76,
1.402,-6.45,-4.49,5.13,-5.33,4.46,4.76,
1.402,-6.45,-4.49,5.13,-5.46,5.04,5.10,
1.402,-6.45,-4.49,5.13,-5.61,5.53,5.32,
1.403,-1.70,-3.29,5.28,-5.61,5.53,5.32,
1.424,-1.70,-3.29,5.28,-5.78,5.94,5.39,
1.427,4.13,-1.92,5.09,-5.78,5.94,5.39,
1.427,4.13,-1.92,5.09,-5.97,6.28,5.24,
1.428,10.20,-0.35,4.86,-5.97,6.28,5.24,
1.428,10.20,-0.35,4.86,-6.14,6.51,4.83,
1.429,15.55,1.22,5.07,-6.14,6.51,4.83,
1.429,15.55,1.22,5.07,-6.26,6.60,4.16,
1.429,19.35,2.97,6.09,-6.26,6.60,4.16,
1.43,21.06,4.67,7.90,-6.26,6.60,4.16,
1.43,21.06,4.67,7.90,-6.25,6.48,3.29,
1.431,21.06,4.67,7.90,-6.06,6.11,2.31,
1.431,20.28,6.01,10.34,-6.06,6.11,2.31,
1.452,20.28,6.01,10.34,-5.66,5.49,1.33,
1.453,17.27,6.58,12.76,-5.66,5.49,1.33,
1.454,12.82,6.10,14.83,-5.66,5.49,1.33,
1.454,12.82,6.10,14.83,-5.08,4.66,0.47,
1.455,12.82,6.10,14.83,-4.35,3.77,-0.19,
1.455,8.04,4.79,15.94,-4.35,3.77,-0.19,
1.455,8.04,4.79,15.94,-3.53,2.91,-0.64,
1.456,3.45,3.11,15.84,-3.53,2.91,-0.64,
1.457,3.45,3.11,15.84,-2.72,2.16,-0.88,
1.458,-0.77,1.29,14.64,-2.72,2.16,-0.88,
1.458,-0.77,1.29,14.64,-2.00,1.62,-0.92,
1.46,-4.39,-0.69,12.63,-2.00,1.62,-0.92,
1.48,-4.39,-0.69,12.63,-1.42,1.32,-0.81,
1.481,-7.37,-2.59,10.33,-1.42,1.32,-0.81,
1.481,-9.87,-4.10,7.80,-1.42,1.32,-0.81,
1.482,-9.87,-4.10,7.80,-0.99,1.29,-0.57,
1.482,-12.20,-5.16,5.40,-0.99,1.29,-0.57,
1.483,-12.20,-5.16,5.40,-0.73,1.49,-0.22,
1.483,-13.87,-6.04,3.41,-0.73,1.49,-0.22,
1.483,-13.87,-6.04,3.41,-0.63,1.87,0.25,
1.484,-13.87,-6.04,3.41,-0.64,2.34,0.82,
1.484,-14.46,-6.75,1.77,-0.64,2.34,0.82,
1.507,-14.46,-6.75,1.77,-0.76,2.83,1.44,
1.508,-13.89,-7.12,0.27,-0.76,2.83,1.44,
1.509,-13.89,-7.12,0.27,-0.95,3.27,2.05,
1.509,-11.59,-7.15,-0.82,-0.95,3.27,2.05,
1.51,-7.43,-6.67,-0.84,-0.95,3.27,2.05,
1.51,-7.43,-6.67,-0.84,-1.20,3.60,2.56,
1.51,-2.06,-5.65,-0.03,-1.20,3.60,2.56,
1.511,-2.06,-5.65,-0.03,-1.44,3.81,2.89,
1.512,3.16,-4.29,1.34,-1.44,3.81,2.89,
1.512,3.16,-4.29,1.34,-1.62,3.92,2.96,
1.512,3.16,-4.29,1.34,-1.68,3.92,2.77,
1.512,7.27,-2.82,2.83,-1.68,3.92,2.77,
1.549,7.27,-2.82,2.83,-1.61,3.80,2.37,
1.55,9.72,-1.48,4.25,-1.61,3.80,2.37,
1.55,10.35,-0.51,5.42,-1.61,3.80,2.37,
1.551,10.35,-0.51,5.42,-1.42,3.55,1.86,
1.551,10.35,-0.51,5.42,-1.14,3.20,1.32,
1.552,9.68,0.10,6.23,-1.14,3.20,1.32,
1.552,9.68,0.10,6.23,-0.78,2.78,0.82,
1.552,8.16,0.43,6.79,-0.78,2.78,0.82,
1.553,6.20,0.64,7.05,-0.78,2.78,0.82,
1.553,6.20,0.64,7.05,-0.37,2.30,0.41,
1.554,6.20,0.64,7.05,0.07,1.80,0.11,
1.554,4.13,0.68,7.01,0.07,1.80,0.11,
1.554,4.13,0.68,7.01,0.50,1.32,-0.09,
1.555,1.66,0.39,6.70,0.50,1.32,-0.09,
1.555,1.66,0.39,6.70,0.93,0.92,-0.20,
1.556,-0.80,-0.24,6.01,0.93,0.92,-0.20,
1.556,-2.82,-1.12,4.80,0.93,0.92,-0.20,
1.556,-2.82,-1.12,4.80,1.31,0.63,-0.19,
1.568,-4.36,-1.82,3.19,1.31,0.63,-0.19,
1.569,-4.36,-1.82,3.19,1.63,0.46,-0.08,
1.57,-4.36,-1.82,3.19,1.85,0.40,0.12,
1.57,-5.79,-2.36,1.20,1.85,0.40,0.12,
1.57,-7.14,-2.51,-0.90,1.85,0.40,0.12,
1.571,-7.14,-2.51,-0.90,1.96,0.44,0.38,
1.677,-7.14,-2.51,-0.90,1.94,0.58,0.71,
1.678,-8.05,-2.34,-2.94,1.94,0.58,0.71,
1.679,-8.05,-2.34,-2.94,1.79,0.77,1.09,
1.679,-8.33,-2.00,-4.53,1.79,0.77,1.09,
1.68,-8.33,-2.00,-4.53,1.53,0.96,1.47,
1.68,-7.98,-1.70,-5.59,1.53,0.96,1.47,
1.68,-7.98,-1.70,-5.59,1.21,1.12,1.83,
1.681,-7.06,-1.48,-6.21,1.21,1.12,1.83,
1.681,-7.06,-1.48,-6.21,0.83,1.27,2.15,
1.682,-5.02,-1.20,-6.18,0.83,1.27,2.15,
1.682,-5.02,-1.20,-6.18,0.43,1.39,2.38,
1.683,-1.94,-0.57,-5.38,0.43,1.39,2.38,
1.683,-1.94,-0.57,-5.38,0.06,1.52,2.48,
1.683,1.28,0.20,-4.23,0.06,1.52,2.48,
1.684,1.28,0.20,-4.23,-0.26,1.65,2.41,
1.684,4.06,0.83,-2.86,-0.26,1.65,2.41,
1.685,4.06,0.83,-2.86,-0.51,1.77,2.22,
1.685,6.02,1.31,-1.28,-0.51,1.77,2.22,
1.686,6.02,1.31,-1.28,-0.66,1.84,1.93,
1.686,6.99,1.63,0.29,-0.66,1.84,1.93,
1.687,6.98,1.83,1.71,-0.66,1.84,1.93,
1.687,6.98,1.83,1.71,-0.73,1.84,1.61,
1.687,6.28,1.91,2.80,-0.73,1.84,1.61,
1.688,6.28,1.91,2.80,-0.71,1.78,1.28,
1.688,6.28,1.91,2.80,-0.61,1.68,1.00,
1.689,5.08,1.92,3.36,-0.61,1.68,1.00,
1.689,3.74,1.80,3.51,-0.61,1.68,1.00,
1.69,3.74,1.80,3.51,-0.46,1.54,0.77,
1.69,3.74,1.80,3.51,-0.29,1.37,0.60,
1.69,2.36,1.56,3.14,-0.29,1.37,0.60,
1.691,2.36,1.56,3.14,-0.13,1.20,0.49,
1.692,1.13,1.21,2.45,-0.13,1.20,0.49,
1.693,1.13,1.21,2.45,0.02,1.05,0.45,
1.693,0.10,0.69,1.49,0.02,1.05,0.45,
1.696,0.10,0.69,1.49,0.12,0.93,0.45,
1.696,-0.88,0.07,0.53,0.12,0.93,0.45,
1.697,-0.88,0.07,0.53,0.19,0.87,0.51,
1.697,-1.83,-0.51,-0.40,0.19,0.87,0.51,
1.698,-1.83,-0.51,-0.40,0.22,0.84,0.61,
1.698,-2.79,-0.85,-1.20,0.22,0.84,0.61,
1.699,-3.65,-0.87,-1.68,0.22,0.84,0.61,
1.699,-3.65,-0.87,-1.68,0.21,0.82,0.76,
1.699,-4.19,-0.73,-1.87,0.21,0.82,0.76,
1.7,-4.19,-0.73,-1.87,0.16,0.81,0.94,
1.7,-4.19,-0.73,-1.87,0.09,0.83,1.14,
1.701,-4.22,-0.62,-2.05,0.09,0.83,1.14,
1.701,-4.22,-0.62,-2.05,-0.03,0.89,1.33,
1.702,-3.71,-0.66,-2.32,-0.03,0.89,1.33,
1.702,-3.71,-0.66,-2.32,-0.18,0.98,1.50,
1.703,-2.66,-0.81,-2.40,-0.18,0.98,1.50,
1.703,-2.66,-0.81,-2.40,-0.37,1.11,1.62,
1.704,-1.15,-0.87,-2.21,-0.37,1.11,1.62,
1.704,-1.15,-0.87,-2.21,-0.57,1.29,1.66,
1.705,0.51,-0.67,-1.79,-0.57,1.29,1.66,
1.707,0.51,-0.67,-1.79,-0.75,1.48,1.62,
1.707,1.92,-0.21,-1.02,-0.75,1.48,1.62,
1.711,1.92,-0.21,-1.02,-0.89,1.62,1.50,
1.712,3.00,0.38,-0.08,-0.89,1.62,1.50,
1.716,3.49,0.92,0.93,-0.89,1.62,1.50,
1.717,3.49,0.92,0.93,-0.97,1.69,1.32,
1.721,3.49,0.92,0.93,-0.99,1.64,1.11,
1.721,3.39,1.39,2.05,-0.99,1.64,1.11,
1.726,3.08,1.89,3.30,-0.99,1.64,1.11,
1.726,3.08,1.89,3.30,-0.93,1.48,0.89,
1.731,2.70,2.34,4.52,-0.93,1.48,0.89,
1.731,2.70,2.34,4.52,-0.79,1.23,0.69,
1.736,2.46,2.62,5.37,-0.79,1.23,0.69,
1.736,2.46,2.62,5.37,-0.56,0.90,0.50,
1.74,2.16,2.51,5.66,-0.56,0.90,0.50,
1.741,2.16,2.51,5.66,-0.26,0.53,0.34,
1.752,2.16,2.51,5.66,0.05,0.14,0.21,
1.752,1.74,2.23,5.57,0.05,0.14,0.21,
1.753,1.14,1.81,5.20,0.05,0.14,0.21,
1.753,1.14,1.81,5.20,0.34,-0.20,0.11,
1.756,1.14,1.81,5.20,0.59,-0.41,0.05,
1.756,0.58,1.17,4.43,0.59,-0.41,0.05,
1.793,0.58,1.17,4.43,0.79,-0.48,0.02,
1.794,-0.11,0.37,3.36,0.79,-0.48,0.02,
1.795,-0.11,0.37,3.36,0.90,-0.41,0.04,
1.795,-0.79,-0.31,2.19,0.90,-0.41,0.04,
1.796,-0.79,-0.31,2.19,0.93,-0.26,0.10,
1.796,-1.36,-0.61,0.93,0.93,-0.26,0.10,
1.797,-1.76,-0.65,-0.28,0.93,-0.26,0.10,
1.797,-1.76,-0.65,-0.28,0.89,-0.03,0.19,
1.798,-2.04,-0.53,-1.36,0.89,-0.03,0.19,
1.798,-2.04,-0.53,-1.36,0.77,0.22,0.30,
1.799,-2.04,-0.53,-1.36,0.61,0.48,0.42,
1.799,-2.20,-0.45,-2.21,0.61,0.48,0.42,
1.8,-2.20,-0.45,-2.21,0.40,0.73,0.55,
1.8,-2.15,-0.37,-2.82,0.40,0.73,0.55,
1.801,-2.15,-0.37,-2.82,0.16,0.95,0.67,
1.801,-2.00,-0.33,-3.27,0.16,0.95,0.67,
1.802,-2.00,-0.33,-3.27,-0.08,1.13,0.77,
1.802,-1.77,-0.21,-3.18,-0.08,1.13,0.77,
1.804,-1.77,-0.21,-3.18,-0.31,1.30,0.84,
1.805,-1.49,-0.09,-2.65,-0.31,1.30,0.84,
1.809,-1.49,-0.09,-2.65,-0.49,1.44,0.88,
1.81,-1.04,-0.08,-1.79,-0.49,1.44,0.88,
1.814,-1.04,-0.08,-1.79,-0.60,1.53,0.88,
1.815,-0.05,-0.05,-0.66,-0.60,1.53,0.88,
1.819,-0.05,-0.05,-0.66,-0.62,1.53,0.83,
1.819,1.21,0.19,0.56,-0.62,1.53,0.83,
1.824,1.21,0.19,0.56,-0.54,1.41,0.71,
1.824,2.22,0.49,1.48,-0.54,1.41,0.71,
1.834,2.22,0.49,1.48,-0.37,1.17,0.56,
1.835,2.79,0.69,1.98,-0.37,1.17,0.56,
1.835,2.86,0.69,2.19,-0.37,1.17,0.56,
1.836,2.86,0.69,2.19,-0.14,0.83,0.38,
1.838,2.86,0.69,2.19,0.12,0.43,0.20,
1.838,2.53,0.57,2.06,0.12,0.43,0.20,
1.843,1.84,0.42,1.59,0.12,0.43,0.20,
1.843,1.84,0.42,1.59,0.38,-0.01,0.04,
1.863,0.97,0.27,0.89,0.38,-0.01,0.04,
1.864,0.97,0.27,0.89,0.60,-0.43,-0.09,
1.864,0.09,0.07,0.10,0.60,-0.43,-0.09,
1.865,0.09,0.07,0.10,0.78,-0.79,-0.16,
1.865,-0.68,-0.24,-0.73,0.78,-0.79,-0.16,
1.865,-0.68,-0.24,-0.73,0.87,-1.02,-0.17,
1.866,-1.16,-0.57,-1.35,0.87,-1.02,-0.17,
1.866,-1.16,-0.57,-1.35,0.87,-1.12,-0.13,
1.872,-1.16,-0.57,-1.35,0.79,-1.05,-0.06,
1.872,-1.52,-0.82,-1.67,0.79,-1.05,-0.06,
1.873,-1.64,-0.88,-1.78,0.79,-1.05,-0.06,
1.873,-1.64,-0.88,-1.78,0.67,-0.83,0.02,
1.877,-1.64,-0.88,-1.78,0.51,-0.52,0.11,
1.877,-1.53,-0.76,-1.56,0.51,-0.52,0.11,
1.885,-1.15,-0.36,-1.09,0.51,-0.52,0.11,
1.886,-1.15,-0.36,-1.09,0.34,-0.18,0.20,
1.887,-0.54,0.21,-0.49,0.34,-0.18,0.20,
1.887,-0.54,0.21,-0.49,0.19,0.11,0.26,
1.892,0.03,0.87,0.12,0.19,0.11,0.26,
1.892,0.03,0.87,0.12,0.06,0.35,0.28,
1.904,0.56,1.48,0.70,0.06,0.35,0.28,
1.904,0.56,1.48,0.70,-0.04,0.51,0.27,
1.905,1.33,2.00,1.29,-0.04,0.51,0.27,
1.905,1.33,2.00,1.29,-0.12,0.62,0.22,
1.906,2.40,2.43,1.94,-0.12,0.62,0.22,
1.907,2.40,2.43,1.94,-0.17,0.70,0.14,
1.922,2.40,2.43,1.94,-0.18,0.75,0.01,
1.923,3.28,2.76,2.51,-0.18,0.75,0.01,
1.924,3.28,2.76,2.51,-0.16,0.74,-0.16,
1.925,3.70,2.91,2.98,-0.16,0.74,-0.16,
1.925,3.70,2.91,2.98,-0.12,0.70,-0.34,
1.926,3.58,2.91,3.28,-0.12,0.70,-0.34,
1.927,3.24,2.73,3.47,-0.12,0.70,-0.34,
1.927,3.24,2.73,3.47,-0.05,0.64,-0.51,
1.935,3.24,2.73,3.47,0.02,0.59,-0.66,
1.936,2.58,2.41,3.39,0.02,0.59,-0.66,
1.937,2.58,2.41,3.39,0.11,0.56,-0.77,
1.937,1.64,1.90,3.07,0.11,0.56,-0.77,
1.941,1.64,1.90,3.07,0.19,0.56,-0.84,
1.941,0.51,1.25,2.54,0.19,0.56,-0.84,
1.956,-0.61,0.55,1.98,0.19,0.56,-0.84,
1.957,-0.61,0.55,1.98,0.26,0.58,-0.85,
1.957,-0.61,0.55,1.98,0.31,0.64,-0.81,
1.958,-1.56,-0.04,1.06,0.31,0.64,-0.81,
1.959,-1.56,-0.04,1.06,0.33,0.73,-0.71,
1.959,-2.87,-0.69,-2.75,0.33,0.73,-0.71,
1.987,-3.86,-0.77,-5.06,0.33,0.73,-0.71,
1.989,-3.86,-0.77,-5.06,0.22,0.96,-0.56,
1.989,-4.28,-0.87,-4.75,0.22,0.96,-0.56,
1.99,-4.28,-0.87,-4.75,-0.04,1.12,-0.36,
1.99,-4.28,-0.87,-4.75,-0.32,1.15,-0.14,
1.991,-4.31,-0.96,-4.13,-0.32,1.15,-0.14,
1.991,-4.31,-0.96,-4.13,-0.51,1.21,0.05,
1.992,-3.55,-0.96,-2.74,-0.51,1.21,0.05,
1.992,-1.98,-1.03,-1.83,-0.51,1.21,0.05,
1.993,-1.98,-1.03,-1.83,-0.61,1.23,0.19,
1.993,-1.98,-1.03,-1.83,-0.65,1.15,0.27,
1.994,-0.60,-1.03,-0.76,-0.65,1.15,0.27,
1.995,-0.60,-1.03,-0.76,-0.62,1.01,0.27,
1.996,0.04,-1.00,0.31,-0.62,1.01,0.27,
1.996,0.04,-1.00,0.31,-0.51,0.83,0.23,
1.997,0.23,-0.80,1.12,-0.51,0.83,0.23,
1.999,0.23,-0.80,1.12,-0.35,0.59,0.16,
2.0,0.20,-0.63,1.57,-0.35,0.59,0.16,
2.035,0.29,-0.54,1.66,-0.35,0.59,0.16,
2.036,0.29,-0.54,1.66,-0.17,0.33,0.11,
2.036,0.49,-0.65,1.66,-0.17,0.33,0.11,
2.037,0.49,-0.65,1.66,-0.00,0.09,0.05,
2.037,0.49,-0.65,1.66,0.15,-0.11,-0.02,
2.038,0.55,-0.74,1.60,0.15,-0.11,-0.02,
2.038,0.14,-0.73,1.43,0.15,-0.11,-0.02,
2.039,0.14,-0.73,1.43,0.28,-0.27,-0.09,
2.039,0.14,-0.73,1.43,0.39,-0.38,-0.16,
2.04,-0.61,-0.75,1.16,0.39,-0.38,-0.16,
2.04,-1.22,-0.83,0.80,0.39,-0.38,-0.16,
2.041,-1.22,-0.83,0.80,0.46,-0.45,-0.18,
2.041,-1.22,-0.83,0.80,0.49,-0.47,-0.17,
2.042,-1.61,-1.04,0.48,0.49,-0.47,-0.17,
2.042,-1.98,-1.21,0.26,0.49,-0.47,-0.17,
2.043,-1.98,-1.21,0.26,0.49,-0.45,-0.14,
2.043,-1.98,-1.21,0.26,0.47,-0.38,-0.09,
2.044,-2.31,-1.26,-0.02,0.47,-0.38,-0.09,
2.048,-2.31,-1.26,-0.02,0.41,-0.27,-0.03,
2.049,-2.50,-1.31,-0.36,0.41,-0.27,-0.03,
2.053,-2.50,-1.31,-0.36,0.34,-0.15,0.04,
2.054,-2.56,-1.08,-1.04,0.34,-0.15,0.04,
2.058,-2.89,-0.79,-1.59,0.34,-0.15,0.04,
2.058,-2.89,-0.79,-1.59,0.23,-0.03,0.12,
2.07,-2.89,-0.79,-1.59,0.09,0.03,0.19,
2.07,-3.13,-0.55,-1.59,0.09,0.03,0.19,
2.071,-3.13,-0.55,-1.59,-0.04,0.04,0.28,
2.071,-3.11,-0.24,-1.25,-0.04,0.04,0.28,
2.076,-3.40,0.00,-0.55,-0.04,0.04,0.28,
2.076,-3.40,0.00,-0.55,-0.13,0.01,0.36,
2.098,-3.40,0.00,-0.55,-0.20,-0.04,0.45,
2.099,-3.06,0.15,-0.01,-0.20,-0.04,0.45,
2.099,-3.06,0.15,-0.01,-0.24,-0.08,0.54,
2.099,-2.20,0.16,0.64,-0.24,-0.08,0.54,
2.1,-1.29,0.08,1.40,-0.24,-0.08,0.54,
2.1,-1.29,0.08,1.40,-0.26,-0.11,0.60,
2.1,-1.29,0.08,1.40,-0.23,-0.09,0.63,
2.101,-0.17,0.03,1.85,-0.23,-0.09,0.63,
2.101,-0.17,0.03,1.85,-0.18,-0.05,0.62,
2.101,0.73,0.05,2.22,-0.18,-0.05,0.62,
2.102,1.16,0.15,2.35,-0.18,-0.05,0.62,
2.102,1.16,0.15,2.35,-0.11,-0.01,0.57,
