
time,ax,ay,az,wx,wy,wz,
0.004,-0.61,1.67,1.91,1.39,-2.03,-2.31,
0.005,-0.61,1.67,1.91,1.45,-2.12,-2.32,
0.006,-1.03,1.49,2.51,1.45,-2.12,-2.32,
0.006,-1.11,1.41,2.91,1.45,-2.12,-2.32,
0.007,-1.11,1.41,2.91,1.52,-2.19,-2.33,
0.007,-0.98,1.41,2.98,1.52,-2.19,-2.33,
0.008,-0.98,1.41,2.98,1.58,-2.25,-2.34,
0.008,-1.04,1.47,3.01,1.58,-2.25,-2.34,
0.009,-1.14,1.50,3.17,1.58,-2.25,-2.34,
0.019,-1.14,1.50,3.17,1.62,-2.29,-2.36,
0.02,-1.14,1.50,3.17,1.66,-2.31,-2.38,
0.02,-1.34,1.49,3.57,1.66,-2.31,-2.38,
0.021,-1.34,1.49,3.57,1.71,-2.32,-2.39,
0.021,-1.44,1.30,4.01,1.71,-2.32,-2.39,
0.037,-1.44,1.30,4.01,1.76,-2.32,-2.40,
0.038,-1.26,1.01,4.39,1.76,-2.32,-2.40,
0.039,-1.26,1.01,4.39,1.83,-2.34,-2.44,
0.039,-1.01,0.71,4.56,1.83,-2.34,-2.44,
0.04,-1.01,0.71,4.56,1.90,-2.38,-2.49,
0.04,-0.87,0.36,4.64,1.90,-2.38,-2.49,
0.041,-0.87,0.36,4.64,1.98,-2.43,-2.55,
0.041,-0.68,0.16,4.63,1.98,-2.43,-2.55,
0.042,-0.68,0.16,4.63,2.04,-2.50,-2.61,
0.042,-0.35,0.07,4.51,2.04,-2.50,-2.61,
0.047,0.02,-0.03,4.43,2.04,-2.50,-2.61,
0.047,0.02,-0.03,4.43,2.09,-2.55,-2.70,
0.058,0.02,-0.03,4.43,2.12,-2.60,-2.81,
0.058,0.25,-0.15,4.29,2.12,-2.60,-2.81,
0.059,0.25,-0.15,4.29,2.14,-2.67,-2.94,
0.059,0.38,-0.29,4.27,2.14,-2.67,-2.94,
0.061,0.38,-0.29,4.27,2.14,-2.75,-3.09,
0.062,0.36,-0.47,4.36,2.14,-2.75,-3.09,
0.066,0.36,-0.47,4.36,2.13,-2.83,-3.23,
0.067,0.10,-0.71,4.48,2.13,-2.83,-3.23,
0.075,0.10,-0.71,4.48,2.12,-2.88,-3.37,
0.076,0.18,-1.05,4.48,2.12,-2.88,-3.37,
0.076,0.18,-1.05,4.48,2.08,-2.89,-3.51,
0.077,0.64,-1.49,4.42,2.08,-2.89,-3.51,
0.081,0.64,-1.49,4.42,2.01,-2.85,-3.65,
0.082,0.44,-1.90,4.26,2.01,-2.85,-3.65,
0.092,0.44,-1.90,4.26,1.90,-2.77,-3.79,
0.093,-0.02,-2.20,4.02,1.90,-2.77,-3.79,
0.093,-0.02,-2.20,4.02,1.76,-2.64,-3.91,
0.094,-0.49,-2.45,4.03,1.76,-2.64,-3.91,
0.096,-0.49,-2.45,4.03,1.60,-2.49,-3.99,
0.096,-1.09,-2.65,4.29,1.60,-2.49,-3.99,
0.112,-1.09,-2.65,4.29,1.45,-2.35,-4.05,
0.113,-1.45,-2.92,4.72,1.45,-2.35,-4.05,
0.114,-1.92,-3.30,5.15,1.45,-2.35,-4.05,
0.115,-1.92,-3.30,5.15,1.32,-2.28,-4.09,
0.115,-2.14,-3.83,5.46,1.32,-2.28,-4.09,
0.116,-2.14,-3.83,5.46,1.22,-2.26,-4.11,
0.116,-2.69,-4.47,5.76,1.22,-2.26,-4.11,
0.117,-2.69,-4.47,5.76,1.14,-2.29,-4.12,
0.12,-2.69,-4.47,5.76,1.07,-2.34,-4.12,
0.121,-3.30,-5.04,5.93,1.07,-2.34,-4.12,
0.125,-3.30,-5.04,5.93,0.98,-2.33,-4.10,
0.126,-4.08,-5.44,6.34,0.98,-2.33,-4.10,
0.131,-4.64,-5.72,7.17,0.98,-2.33,-4.10,
0.132,-4.64,-5.72,7.17,0.88,-2.23,-4.05,
0.151,-4.64,-5.72,7.17,0.81,-2.09,-3.96,
0.152,-4.48,-5.92,8.13,0.81,-2.09,-3.96,
0.153,-4.48,-5.92,8.13,0.80,-1.96,-3.85,
0.153,-3.79,-6.00,9.14,0.80,-1.96,-3.85,
0.155,-3.79,-6.00,9.14,0.84,-1.86,-3.77,
0.155,-3.07,-6.10,10.08,0.84,-1.86,-3.77,
0.156,-2.66,-6.13,10.69,0.84,-1.86,-3.77,
0.157,-2.66,-6.13,10.69,0.94,-1.81,-3.71,
0.158,-2.64,-6.12,10.89,0.94,-1.81,-3.71,
0.158,-2.64,-6.12,10.89,1.08,-1.77,-3.68,
0.161,-2.64,-6.12,10.89,1.25,-1.75,-3.66,
0.162,-2.76,-6.09,10.86,1.25,-1.75,-3.66,
0.164,-2.76,-6.09,10.86,1.40,-1.74,-3.63,
0.165,-2.78,-6.23,10.52,1.40,-1.74,-3.63,
0.174,-2.78,-6.23,10.52,1.54,-1.75,-3.59,
0.175,-2.59,-6.49,10.05,1.54,-1.75,-3.59,
0.177,-2.59,-6.49,10.05,1.63,-1.77,-3.55,
0.177,-2.39,-6.77,9.49,1.63,-1.77,-3.55,
0.179,-2.39,-6.77,9.49,1.70,-1.80,-3.50,
0.18,-1.10,-7.10,9.29,1.70,-1.80,-3.50,
0.183,-2.11,-7.02,8.56,1.70,-1.80,-3.50,
0.185,-2.11,-7.02,8.56,1.74,-1.87,-3.47,
0.191,-2.32,-7.05,7.65,1.74,-1.87,-3.47,
0.192,-2.32,-7.05,7.65,1.75,-1.90,-3.42,
0.193,-2.44,-7.08,7.15,1.75,-1.90,-3.42,
0.193,-2.44,-7.08,7.15,1.71,-1.86,-3.35,
0.198,-2.44,-7.08,7.15,1.63,-1.83,-3.26,
0.198,-2.68,-7.66,7.33,1.63,-1.83,-3.26,
0.208,-2.68,-7.66,7.33,1.57,-1.90,-3.14,
0.209,-1.47,-7.32,6.68,1.57,-1.90,-3.14,
0.21,-1.47,-7.32,6.68,1.47,-1.91,-3.04,
0.21,-0.89,-7.21,5.77,1.47,-1.91,-3.04,
0.213,-0.89,-7.21,5.77,1.28,-1.86,-2.99,
0.213,-0.62,-7.18,5.73,1.28,-1.86,-2.99,
0.218,-0.62,-7.18,5.73,1.09,-1.75,-2.95,
0.219,-0.32,-7.37,5.93,1.09,-1.75,-2.95,
0.228,-0.32,-7.37,5.93,0.91,-1.57,-2.92,
0.229,-0.05,-7.80,6.12,0.91,-1.57,-2.92,
0.23,0.31,-8.17,6.29,0.91,-1.57,-2.92,
0.23,0.31,-8.17,6.29,0.74,-1.36,-2.89,
0.265,0.53,-8.39,6.37,0.74,-1.36,-2.89,
0.266,0.53,-8.39,6.37,0.59,-1.14,-2.86,
0.267,0.53,-8.39,6.37,0.43,-0.92,-2.82,
0.268,0.60,-8.51,6.62,0.43,-0.92,-2.82,
0.269,0.60,-8.51,6.62,0.29,-0.69,-2.78,
0.269,0.51,-8.88,6.93,0.29,-0.69,-2.78,
0.27,0.51,-8.88,6.93,0.18,-0.48,-2.72,
0.27,0.29,-9.29,7.26,0.18,-0.48,-2.72,
0.271,0.29,-9.29,7.26,0.11,-0.31,-2.63,
0.272,0.45,-9.59,7.09,0.11,-0.31,-2.63,
0.273,0.45,-9.59,7.09,0.03,-0.11,-2.53,
0.273,0.81,-9.71,6.72,0.03,-0.11,-2.53,
0.274,1.03,-9.67,6.62,0.03,-0.11,-2.53,
0.276,1.03,-9.67,6.62,-0.08,0.13,-2.43,
0.277,1.10,-9.67,6.61,-0.08,0.13,-2.43,
0.277,1.10,-9.67,6.61,-0.20,0.41,-2.33,
0.278,1.10,-9.67,6.61,-0.31,0.69,-2.22,
0.278,1.19,-9.71,6.55,-0.31,0.69,-2.22,
0.279,1.19,-9.71,6.55,-0.41,0.92,-2.11,
0.279,1.44,-9.75,6.20,-0.41,0.92,-2.11,
0.281,1.70,-9.74,5.71,-0.41,0.92,-2.11,
0.282,1.70,-9.74,5.71,-0.50,1.07,-1.99,
0.286,2.00,-9.65,5.21,-0.50,1.07,-1.99,
0.287,2.00,-9.65,5.21,-0.61,1.19,-1.88,
0.291,2.00,-9.65,5.21,-0.73,1.27,-1.77,
0.291,2.22,-9.51,4.78,-0.73,1.27,-1.77,
0.295,2.22,-9.51,4.78,-0.87,1.34,-1.66,
0.296,2.34,-9.35,4.42,-0.87,1.34,-1.66,
0.302,2.34,-9.35,4.42,-1.02,1.37,-1.54,
0.302,2.51,-9.23,4.15,-1.02,1.37,-1.54,
0.305,2.64,-9.11,4.11,-1.02,1.37,-1.54,
0.307,2.64,-9.11,4.11,-1.18,1.40,-1.42,
0.31,2.64,-9.11,4.11,-1.33,1.41,-1.28,
0.311,2.88,-8.94,4.23,-1.33,1.41,-1.28,
0.316,3.13,-8.85,4.38,-1.33,1.41,-1.28,
0.316,3.13,-8.85,4.38,-1.47,1.43,-1.14,
0.327,3.50,-8.77,4.64,-1.47,1.43,-1.14,
0.328,3.50,-8.77,4.64,-1.59,1.43,-1.00,
0.328,3.50,-8.77,4.64,-1.69,1.41,-0.87,
0.328,3.89,-8.65,4.91,-1.69,1.41,-0.87,
0.33,4.17,-8.50,5.17,-1.69,1.41,-0.87,
0.331,4.17,-8.50,5.17,-1.77,1.39,-0.73,
0.335,4.17,-8.50,5.17,-1.82,1.37,-0.61,
0.341,4.48,-8.36,5.41,-1.82,1.37,-0.61,
0.342,4.48,-8.36,5.41,-1.85,1.32,-0.50,
0.342,4.68,-8.27,5.63,-1.85,1.32,-0.50,
0.344,4.68,-8.27,5.63,-1.86,1.27,-0.39,
0.345,4.88,-8.26,5.85,-1.86,1.27,-0.39,
0.349,4.88,-8.26,5.85,-1.85,1.20,-0.27,
0.35,4.99,-8.29,6.19,-1.85,1.20,-0.27,
0.357,4.99,-8.29,6.19,-1.82,1.13,-0.14,
0.358,5.00,-8.24,6.61,-1.82,1.13,-0.14,
0.359,5.00,-8.24,6.61,-1.77,1.10,-0.00,
0.36,5.05,-8.17,6.90,-1.77,1.10,-0.00,
0.365,5.05,-8.17,6.90,-1.70,1.08,0.14,
0.365,5.22,-8.07,6.90,-1.70,1.08,0.14,
0.369,5.22,-8.07,6.90,-1.62,1.07,0.28,
0.37,5.49,-7.95,6.69,-1.62,1.07,0.28,
0.373,5.49,-7.95,6.69,-1.55,1.06,0.40,
0.374,5.73,-7.84,6.38,-1.55,1.06,0.40,
0.378,5.73,-7.84,6.38,-1.49,1.01,0.51,
0.379,5.85,-7.86,6.16,-1.49,1.01,0.51,
0.383,5.91,-7.88,5.98,-1.49,1.01,0.51,
0.384,5.91,-7.88,5.98,-1.42,0.94,0.61,
0.388,5.97,-7.91,5.84,-1.42,0.94,0.61,
0.389,5.97,-7.91,5.84,-1.36,0.88,0.71,
0.393,5.97,-7.91,5.84,-1.29,0.83,0.83,
0.394,6.02,-7.97,5.45,-1.29,0.83,0.83,
0.398,6.02,-7.97,5.45,-1.24,0.77,0.94,
0.399,6.13,-7.89,4.91,-1.24,0.77,0.94,
0.403,6.13,-7.89,4.91,-1.23,0.73,1.07,
0.404,6.39,-7.86,4.20,-1.23,0.73,1.07,
0.408,6.86,-7.79,3.64,-1.23,0.73,1.07,
0.409,6.86,-7.79,3.64,-1.24,0.69,1.18,
0.413,6.86,-7.79,3.64,-1.28,0.64,1.29,
0.413,7.41,-7.79,3.15,-1.28,0.64,1.29,
0.418,7.41,-7.79,3.15,-1.33,0.59,1.37,
0.418,8.11,-7.80,2.73,-1.33,0.59,1.37,
0.43,8.11,-7.80,2.73,-1.38,0.53,1.43,
0.431,8.95,-7.71,2.52,-1.38,0.53,1.43,
0.431,8.95,-7.71,2.52,-1.45,0.47,1.48,
0.431,9.22,-7.73,2.02,-1.45,0.47,1.48,
0.432,9.22,-7.73,2.02,-1.52,0.45,1.50,
0.432,9.79,-7.89,1.46,-1.52,0.45,1.50,
0.447,9.79,-7.89,1.46,-1.61,0.45,1.52,
0.448,10.43,-8.02,1.15,-1.61,0.45,1.52,
0.448,10.95,-8.11,0.98,-1.61,0.45,1.52,
0.449,10.95,-8.11,0.98,-1.70,0.42,1.54,
0.449,11.10,-8.13,1.11,-1.70,0.42,1.54,
0.45,11.10,-8.13,1.11,-1.81,0.38,1.55,
0.459,11.18,-8.11,1.46,-1.81,0.38,1.55,
0.46,11.18,-8.11,1.46,-1.89,0.35,1.56,
0.46,11.18,-8.11,1.46,-1.95,0.34,1.57,
0.46,11.28,-8.17,1.76,-1.95,0.34,1.57,
0.462,11.42,-8.36,2.03,-1.95,0.34,1.57,
0.462,11.42,-8.36,2.03,-1.97,0.29,1.59,
0.467,11.42,-8.36,2.03,-1.97,0.20,1.63,
0.477,11.45,-8.42,2.38,-1.97,0.20,1.63,
0.478,11.45,-8.42,2.38,-1.94,0.11,1.69,
0.479,11.40,-8.39,2.69,-1.94,0.11,1.69,
0.508,11.28,-8.31,2.74,-1.94,0.11,1.69,
0.508,11.28,-8.31,2.74,-1.86,0.01,1.78,
0.509,11.03,-8.02,2.69,-1.86,0.01,1.78,
0.509,11.03,-8.02,2.69,-1.77,-0.11,1.89,
0.51,11.03,-8.02,2.69,-1.67,-0.26,2.01,
0.51,10.91,-7.65,2.52,-1.67,-0.26,2.01,
0.511,10.84,-7.43,2.10,-1.67,-0.26,2.01,
0.511,10.84,-7.43,2.10,-1.56,-0.43,2.15,
0.512,10.84,-7.43,2.10,-1.45,-0.63,2.29,
0.512,10.79,-7.33,1.82,-1.45,-0.63,2.29,
0.512,10.64,-7.38,1.47,-1.45,-0.63,2.29,
0.513,10.64,-7.38,1.47,-1.34,-0.84,2.43,
0.513,10.64,-7.38,1.47,-1.24,-1.07,2.58,
0.514,10.74,-7.14,0.48,-1.24,-1.07,2.58,
0.514,11.40,-6.49,-2.07,-1.24,-1.07,2.58,
0.515,11.40,-6.49,-2.07,-1.17,-1.46,2.74,
0.515,11.40,-6.49,-2.07,-1.14,-2.01,2.88,
0.515,10.84,-7.29,-0.82,-1.14,-2.01,2.88,
0.527,10.84,-7.29,-0.82,-1.08,-2.32,3.06,
0.527,10.63,-8.14,-0.57,-1.08,-2.32,3.06,
0.528,10.63,-8.14,-0.57,-1.01,-2.57,3.27,
0.528,10.05,-8.61,0.15,-1.01,-2.57,3.27,
0.53,10.05,-8.61,0.15,-0.97,-2.55,3.53,
0.53,9.75,-8.94,1.65,-0.97,-2.55,3.53,
0.535,10.17,-8.77,1.28,-0.97,-2.55,3.53,
0.536,10.17,-8.77,1.28,-0.93,-2.18,3.84,
0.556,10.17,-8.77,1.28,-0.91,-1.77,4.13,
0.557,11.20,-8.13,-0.15,-0.91,-1.77,4.13,
0.557,11.20,-8.13,-0.15,-0.91,-1.46,4.34,
0.558,11.20,-8.13,-0.15,-0.91,-1.16,4.45,
0.559,12.25,-7.47,-0.58,-0.91,-1.16,4.45,
0.559,13.16,-6.78,0.50,-0.91,-1.16,4.45,
0.56,13.16,-6.78,0.50,-0.87,-0.84,4.44,
0.56,14.00,-6.13,2.50,-0.87,-0.84,4.44,
0.561,14.51,-5.68,3.98,-0.87,-0.84,4.44,
0.561,14.51,-5.68,3.98,-0.77,-0.48,4.36,
0.565,14.51,-5.68,3.98,-0.58,-0.15,4.22,
0.565,14.95,-5.30,4.75,-0.58,-0.15,4.22,
0.57,15.23,-5.36,5.44,-0.58,-0.15,4.22,
0.571,15.23,-5.36,5.44,-0.28,0.10,4.07,
0.574,15.23,-5.36,5.44,0.10,0.27,3.92,
0.574,14.89,-5.50,6.30,0.10,0.27,3.92,
0.579,14.89,-5.50,6.30,0.55,0.34,3.77,
0.579,14.20,-5.29,6.90,0.55,0.34,3.77,
0.584,14.20,-5.29,6.90,1.06,0.32,3.62,
0.584,13.77,-5.26,6.62,1.06,0.32,3.62,
0.589,13.77,-5.26,6.62,1.59,0.19,3.45,
0.589,13.73,-5.47,5.65,1.59,0.19,3.45,
0.593,13.79,-5.80,4.26,1.59,0.19,3.45,
0.594,13.79,-5.80,4.26,2.09,-0.02,3.25,
0.598,13.67,-5.82,2.69,2.09,-0.02,3.25,
0.599,13.67,-5.82,2.69,2.54,-0.28,3.03,
0.603,13.67,-5.82,2.69,2.93,-0.51,2.81,
0.605,13.34,-5.65,1.14,2.93,-0.51,2.81,
0.608,13.34,-5.65,1.14,3.26,-0.67,2.62,
0.608,12.97,-5.57,-0.54,3.26,-0.67,2.62,
0.612,12.97,-5.57,-0.54,3.51,-0.73,2.46,
0.613,12.62,-5.67,-2.34,3.51,-0.73,2.46,
0.617,12.62,-5.67,-2.34,3.66,-0.69,2.34,
0.618,11.93,-6.04,-4.84,3.66,-0.69,2.34,
0.622,11.69,-5.65,-7.64,3.66,-0.69,2.34,
0.623,11.69,-5.65,-7.64,3.70,-0.57,2.27,
0.627,11.69,-5.65,-7.64,3.58,-0.38,2.23,
0.628,10.86,-4.51,-9.23,3.58,-0.38,2.23,
0.632,10.86,-4.51,-9.23,3.34,-0.12,2.23,
0.633,9.14,-3.55,-10.43,3.34,-0.12,2.23,
0.641,9.14,-3.55,-10.43,3.01,0.16,2.34,
0.641,6.80,-3.40,-11.67,3.01,0.16,2.34,
0.645,6.80,-3.40,-11.67,2.59,0.44,2.56,
0.646,4.58,-3.53,-12.86,2.59,0.44,2.56,
0.647,4.58,-3.53,-12.86,2.10,0.77,2.88,
0.647,2.95,-3.22,-13.55,2.10,0.77,2.88,
0.651,2.95,-3.22,-13.55,1.57,1.08,3.24,
0.652,2.05,-2.49,-13.04,1.57,1.08,3.24,
0.658,2.05,-2.49,-13.04,1.05,1.34,3.61,
0.659,2.16,-1.67,-11.21,1.05,1.34,3.61,
0.662,2.16,-1.67,-11.21,0.62,1.51,3.94,
0.662,3.33,-0.93,-8.60,0.62,1.51,3.94,
0.667,3.33,-0.93,-8.60,0.34,1.58,4.20,
0.667,5.06,-0.26,-6.00,0.34,1.58,4.20,
0.672,5.06,-0.26,-6.00,0.22,1.60,4.35,
0.673,6.81,0.52,-3.59,0.22,1.60,4.35,
0.679,6.81,0.52,-3.59,0.26,1.58,4.37,
0.68,8.30,1.38,-0.87,0.26,1.58,4.37,
0.681,8.30,1.38,-0.87,0.47,1.50,4.28,
0.682,9.65,2.19,1.79,0.47,1.50,4.28,
0.686,9.65,2.19,1.79,0.86,1.36,4.08,
0.687,10.89,2.96,3.79,0.86,1.36,4.08,
0.69,11.93,3.81,4.75,0.86,1.36,4.08,
0.691,11.93,3.81,4.75,1.40,1.19,3.80,
0.695,11.93,3.81,4.75,2.03,1.04,3.44,
0.696,12.76,4.53,4.45,2.03,1.04,3.44,
0.7,12.76,4.53,4.45,2.67,0.89,3.00,
0.701,12.86,4.94,3.37,2.67,0.89,3.00,
0.707,12.86,4.94,3.37,3.27,0.74,2.55,
0.708,11.93,5.00,1.83,3.27,0.74,2.55,
0.71,10.25,4.82,-0.19,3.27,0.74,2.55,
0.711,10.25,4.82,-0.19,3.77,0.65,2.13,
0.717,10.25,4.82,-0.19,4.13,0.66,1.76,
0.717,8.49,4.57,-2.53,4.13,0.66,1.76,
0.748,8.49,4.57,-2.53,4.33,0.74,1.43,
0.749,6.68,4.31,-4.82,4.33,0.74,1.43,
0.749,4.87,3.93,-6.93,4.33,0.74,1.43,
0.75,4.87,3.93,-6.93,4.37,0.81,1.16,
0.75,4.87,3.93,-6.93,4.26,0.87,0.95,
0.75,3.12,3.47,-8.40,4.26,0.87,0.95,
0.751,1.62,2.88,-8.96,4.26,0.87,0.95,
0.751,1.62,2.88,-8.96,4.05,0.88,0.81,
0.751,1.62,2.88,-8.96,3.80,0.83,0.74,
0.752,0.80,2.24,-8.85,3.80,0.83,0.74,
0.752,0.68,1.29,-8.30,3.80,0.83,0.74,
0.752,0.68,1.29,-8.30,3.56,0.70,0.71,
0.753,0.68,1.29,-8.30,3.34,0.51,0.71,
0.753,1.13,-0.09,-7.35,3.34,0.51,0.71,
0.761,1.13,-0.09,-7.35,3.16,0.30,0.73,
0.762,1.81,-1.57,-6.19,3.16,0.30,0.73,
0.762,1.81,-1.57,-6.19,3.03,0.14,0.76,
0.763,2.62,-2.97,-5.02,3.03,0.14,0.76,
0.764,2.62,-2.97,-5.02,2.93,0.10,0.76,
0.764,3.83,-4.45,-4.04,2.93,0.10,0.76,
0.769,3.83,-4.45,-4.04,2.86,0.17,0.72,
0.77,5.42,-6.05,-3.13,2.86,0.17,0.72,
0.774,5.42,-6.05,-3.13,2.82,0.32,0.61,
0.775,5.96,-7.67,-2.56,2.82,0.32,0.61,
0.778,5.27,-8.55,-1.78,2.82,0.32,0.61,
0.779,5.27,-8.55,-1.78,2.80,0.52,0.49,
0.784,3.60,-9.10,-1.52,2.80,0.52,0.49,
0.784,3.60,-9.10,-1.52,2.81,0.77,0.41,
0.794,2.06,-9.23,-1.67,2.81,0.77,0.41,
0.795,2.06,-9.23,-1.67,2.82,1.01,0.45,
0.795,1.25,-9.88,-2.80,2.82,1.01,0.45,
0.795,1.25,-9.88,-2.80,2.80,1.28,0.58,
0.798,1.25,-9.88,-2.80,2.73,1.51,0.78,
0.798,0.45,-10.83,-4.12,2.73,1.51,0.78,
0.813,0.45,-10.83,-4.12,2.61,1.68,1.09,
0.814,-0.59,-11.49,-4.74,2.61,1.68,1.09,
0.815,-0.59,-11.49,-4.74,2.46,1.79,1.53,
0.815,-2.65,-11.92,-5.29,2.46,1.79,1.53,
0.815,-4.38,-11.77,-5.76,2.46,1.79,1.53,
0.816,-4.38,-11.77,-5.76,2.26,1.83,2.19,
0.817,-4.38,-11.77,-5.76,2.01,1.94,3.02,
0.818,-3.71,-11.68,-6.47,2.01,1.94,3.02,
0.822,-3.71,-11.68,-6.47,1.71,2.02,3.88,
0.823,-0.31,-11.63,-7.22,1.71,2.02,3.88,
0.827,-0.31,-11.63,-7.22,1.39,2.01,4.59,
0.828,4.36,-11.31,-7.61,1.39,2.01,4.59,
0.832,4.36,-11.31,-7.61,1.09,1.93,5.14,
0.832,8.96,-10.91,-7.73,1.09,1.93,5.14,
0.837,8.96,-10.91,-7.73,0.83,1.81,5.55,
0.838,13.46,-10.72,-7.34,0.83,1.81,5.55,
0.842,13.46,-10.72,-7.34,0.62,1.65,5.86,
0.842,18.08,-10.40,-6.73,0.62,1.65,5.86,
0.847,18.08,-10.40,-6.73,0.47,1.49,6.07,
0.848,22.55,-9.36,-5.04,0.47,1.49,6.07,
0.852,22.55,-9.36,-5.04,0.42,1.35,6.20,
0.853,27.41,-8.19,-3.50,0.42,1.35,6.20,
0.86,31.28,-6.99,-2.48,0.42,1.35,6.20,
0.861,31.28,-6.99,-2.48,0.47,1.23,6.21,
0.862,31.28,-6.99,-2.48,0.56,1.18,6.10,
0.87,33.79,-6.34,-1.86,0.56,1.18,6.10,
0.871,34.95,-6.18,-1.67,0.56,1.18,6.10,
0.872,34.95,-6.18,-1.67,0.62,1.25,5.91,
0.873,34.80,-6.69,-1.66,0.62,1.25,5.91,
0.873,34.80,-6.69,-1.66,0.61,1.51,5.71,
0.879,34.80,-6.69,-1.66,0.54,1.90,5.56,
0.88,33.54,-7.64,-1.02,0.54,1.90,5.56,
0.881,31.84,-8.61,0.22,0.54,1.90,5.56,
0.882,31.84,-8.61,0.22,0.48,2.25,5.52,
0.886,25.15,0.29,14.30,0.48,2.25,5.52,
0.887,25.15,0.29,14.30,0.62,2.48,5.57,
0.89,25.15,0.29,14.30,1.65,2.93,5.55,
0.891,18.40,32.22,25.58,1.65,2.93,5.55,
0.896,38.17,32.33,44.33,1.65,2.93,5.55,
0.897,38.17,32.33,44.33,4.43,1.96,5.27,
0.901,35.50,32.58,3.20,4.43,1.96,5.27,
0.902,35.50,32.58,3.20,10.73,-2.49,3.36,
0.909,35.50,32.58,3.20,15.13,-5.27,1.02,
0.91,7.91,32.97,-33.21,15.13,-5.27,1.02,
0.912,7.91,32.97,-33.21,17.11,-3.67,-1.06,
0.913,-40.08,33.45,-32.65,17.11,-3.67,-1.06,
0.915,-40.08,33.45,-32.65,20.76,-0.38,-0.54,
0.919,-40.00,34.10,-32.06,20.76,-0.38,-0.54,
0.921,-40.00,34.10,-32.06,17.08,-0.27,0.55,
0.922,38.40,23.00,-31.62,17.08,-0.27,0.55,
0.925,38.52,10.15,-31.50,17.08,-0.27,0.55,
0.926,38.52,10.15,-31.50,3.18,-3.20,-2.15,
0.93,31.73,-26.93,-31.67,3.18,-3.20,-2.15,
0.931,31.73,-26.93,-31.67,-9.74,-4.12,-5.88,
0.935,-7.54,-44.68,-32.12,-9.74,-4.12,-5.88,
0.935,-7.54,-44.68,-32.12,-19.98,-4.39,-7.28,
0.942,-7.54,-44.68,-32.12,-25.93,-4.32,-6.07,
0.943,-30.43,-45.47,-32.83,-25.93,-4.32,-6.07,
0.944,-38.68,-46.21,41.09,-25.93,-4.32,-6.07,
0.945,-38.68,-46.21,41.09,-27.64,-3.73,-4.43,
0.949,-33.21,-46.77,43.69,-27.64,-3.73,-4.43,
0.95,-33.21,-46.77,43.69,-25.65,-3.74,-2.36,
0.964,-33.21,-46.77,43.69,-19.90,-4.91,-0.03,
0.965,-31.94,-47.11,42.86,-19.90,-4.91,-0.03,
0.966,-31.94,-47.11,42.86,-12.50,-5.40,1.88,
0.966,-31.74,-47.26,42.30,-12.50,-5.40,1.88,
0.995,-31.74,-47.26,42.30,-6.54,-4.52,3.28,
0.996,-23.48,-42.80,41.97,-6.54,-4.52,3.28,
0.997,-9.43,-37.63,41.79,-6.54,-4.52,3.28,
0.998,-9.43,-37.63,41.79,-3.06,-2.64,4.21,
0.999,5.41,-33.75,41.68,-3.06,-2.64,4.21,
0.999,5.41,-33.75,41.68,-1.41,-0.17,4.72,
1.0,5.41,-33.75,41.68,-0.44,2.08,4.79,
1.0,12.68,-26.45,38.44,-0.44,2.08,4.79,
1.001,12.68,-26.45,38.44,0.66,3.22,4.67,
1.002,14.82,-12.57,24.50,0.66,3.22,4.67,
1.003,16.13,3.83,10.12,0.66,3.22,4.67,
1.003,16.13,3.83,10.12,1.76,3.00,4.47,
1.004,16.13,3.83,10.12,2.58,1.88,4.12,
1.004,19.96,18.09,-4.94,2.58,1.88,4.12,
1.005,19.96,18.09,-4.94,2.80,1.00,3.59,
1.005,28.17,25.40,-19.01,2.80,1.00,3.59,
1.006,33.76,26.78,-31.46,2.80,1.00,3.59,
1.007,33.76,26.78,-31.46,2.34,0.93,2.70,
1.013,30.48,24.52,-36.33,2.34,0.93,2.70,
1.014,30.48,24.52,-36.33,1.26,1.41,1.51,
1.015,18.54,20.48,-36.30,1.26,1.41,1.51,
1.015,18.54,20.48,-36.30,-0.29,1.92,0.33,
1.026,18.54,20.48,-36.30,-2.00,2.16,-0.50,
1.027,2.72,14.07,-32.55,-2.00,2.16,-0.50,
1.028,2.72,14.07,-32.55,-3.44,2.15,-0.78,
1.029,-9.20,7.95,-21.95,-3.44,2.15,-0.78,
1.029,-9.20,7.95,-21.95,-4.49,2.17,-0.56,
1.03,-16.64,3.03,-10.09,-4.49,2.17,-0.56,
1.032,-16.64,3.03,-10.09,-5.03,2.19,-0.01,
1.033,-20.72,-1.02,-7.37,-5.03,2.19,-0.01,
1.041,-20.72,-1.02,-7.37,-5.49,2.27,0.76,
1.042,-22.63,-6.82,-6.14,-5.49,2.27,0.76,
1.043,-22.63,-6.82,-6.14,-5.92,2.54,1.61,
1.043,-19.73,-7.38,-2.36,-5.92,2.54,1.61,
1.046,-16.78,-7.28,-4.04,-5.92,2.54,1.61,
1.047,-16.78,-7.28,-4.04,-6.07,2.48,2.35,
1.051,-16.78,-7.28,-4.04,-6.15,2.33,2.96,
1.052,-13.50,-6.29,-6.38,-6.15,2.33,2.96,
1.057,-13.50,-6.29,-6.38,-6.26,2.14,3.50,
1.057,-8.91,-6.41,-11.37,-6.26,2.14,3.50,
1.062,-8.91,-6.41,-11.37,-6.54,2.11,3.95,
1.062,-3.14,-8.94,-12.32,-6.54,2.11,3.95,
1.066,2.56,-12.15,-11.56,-6.54,2.11,3.95,
1.067,2.56,-12.15,-11.56,-6.77,2.19,4.26,
1.075,2.56,-12.15,-11.56,-6.88,2.46,4.32,
1.076,6.73,-14.65,-9.50,-6.88,2.46,4.32,
1.077,6.73,-14.65,-9.50,-6.80,2.75,4.16,
1.078,8.20,-14.09,-6.80,-6.80,2.75,4.16,
1.081,7.58,-10.86,-7.50,-6.80,2.75,4.16,
1.082,7.58,-10.86,-7.50,-6.47,2.74,3.91,
1.086,7.21,-6.59,-12.05,-6.47,2.74,3.91,
1.087,7.21,-6.59,-12.05,-6.16,2.50,3.64,
1.091,7.21,-6.59,-12.05,-6.19,2.31,3.33,
1.092,6.36,-2.49,-14.81,-6.19,2.31,3.33,
1.096,2.65,-0.94,-13.68,-6.19,2.31,3.33,
1.097,2.65,-0.94,-13.68,-6.57,2.16,2.94,
1.101,2.65,-0.94,-13.68,-7.11,2.01,2.66,
1.101,-2.28,-1.95,-10.07,-7.11,2.01,2.66,
1.106,-2.28,-1.95,-10.07,-7.67,1.89,2.57,
1.107,-6.61,-3.84,-5.08,-7.67,1.89,2.57,
1.11,-6.61,-3.84,-5.08,-8.13,1.88,2.65,
1.111,-10.82,-5.59,1.37,-8.13,1.88,2.65,
1.116,-10.82,-5.59,1.37,-8.36,1.92,2.95,
1.116,-13.94,-7.40,6.53,-8.36,1.92,2.95,
1.127,-13.94,-7.40,6.53,-8.38,1.95,3.46,
1.128,-12.89,-10.34,8.81,-8.38,1.95,3.46,
1.129,-12.89,-10.34,8.81,-8.30,2.08,4.00,
1.13,-8.56,-14.56,9.48,-8.30,2.08,4.00,
1.131,-8.56,-14.56,9.48,-8.20,2.48,4.32,
1.131,-3.35,-16.75,13.25,-8.20,2.48,4.32,
1.135,-1.17,-16.50,19.44,-8.20,2.48,4.32,
1.136,-1.17,-16.50,19.44,-7.95,3.06,4.31,
1.15,-1.42,-14.56,24.40,-7.95,3.06,4.31,
1.152,-1.42,-14.56,24.40,-7.38,3.52,4.10,
1.152,-2.09,-10.97,26.62,-7.38,3.52,4.10,
1.153,-2.09,-10.97,26.62,-6.46,3.67,3.89,
1.154,-0.73,-6.08,26.52,-6.46,3.67,3.89,
1.155,-0.73,-6.08,26.52,-5.34,3.54,3.77,
1.156,0.78,-3.05,22.62,-5.34,3.54,3.77,
1.157,0.78,-3.05,22.62,-4.22,3.29,3.65,
1.173,1.16,-1.97,13.55,-4.22,3.29,3.65,
1.174,1.16,-1.97,13.55,-3.35,3.19,3.50,
1.175,2.71,-0.62,4.68,-3.35,3.19,3.50,
1.175,2.71,-0.62,4.68,-3.00,3.40,3.42,
1.176,4.24,0.63,-1.40,-3.00,3.40,3.42,
1.177,4.24,0.63,-1.40,-3.14,3.95,3.36,
1.177,4.24,0.63,-1.40,-3.60,4.67,3.24,
1.178,5.00,0.67,-3.74,-3.60,4.67,3.24,
1.179,3.88,-1.26,-5.44,-3.60,4.67,3.24,
1.179,3.88,-1.26,-5.44,-4.14,5.36,3.09,
1.184,3.88,-1.26,-5.44,-4.65,6.03,2.97,
1.185,3.43,-3.16,-3.19,-4.65,6.03,2.97,
1.188,3.43,-3.16,-3.19,-4.87,6.40,2.81,
1.19,2.14,-4.94,-1.52,-4.87,6.40,2.81,
1.193,2.14,-4.94,-1.52,-4.76,6.28,2.58,
1.194,1.03,-4.94,1.34,-4.76,6.28,2.58,
1.198,1.03,-4.94,1.34,-4.28,5.64,2.26,
1.199,-2.55,-6.81,0.84,-4.28,5.64,2.26,
1.203,-5.57,-7.50,3.30,-4.28,5.64,2.26,
1.204,-5.57,-7.50,3.30,-3.81,5.03,1.93,
1.353,-10.35,-10.16,4.23,-3.81,5.03,1.93,
1.353,-10.35,-10.16,4.23,-3.27,4.55,1.62,
1.354,-10.35,-10.16,4.23,-2.87,4.24,1.51,
1.355,-19.07,-12.48,2.60,-2.87,4.24,1.51,
1.356,-19.07,-12.48,2.60,-2.77,4.01,1.89,
1.357,-26.55,-9.99,2.29,-2.77,4.01,1.89,
1.358,-24.71,-7.23,4.32,-2.77,4.01,1.89,
1.359,-24.71,-7.23,4.32,-2.88,3.78,2.71,
1.359,-16.40,-6.49,4.80,-2.88,3.78,2.71,
1.36,-16.40,-6.49,4.80,-3.13,3.53,3.64,
1.361,-16.40,-6.49,4.80,-3.56,3.41,4.43,
1.361,-3.90,-2.32,11.11,-3.56,3.41,4.43,
1.362,-3.90,-2.32,11.11,-3.81,3.37,4.81,
1.363,7.28,1.73,21.61,-3.81,3.37,4.81,
1.364,7.28,1.73,21.61,-3.54,3.44,4.78,
1.365,16.94,5.23,30.85,-3.54,3.44,4.78,
1.365,23.02,8.11,31.52,-3.54,3.44,4.78,
1.366,23.02,8.11,31.52,-2.63,3.44,4.44,
1.367,23.02,8.11,31.52,-1.38,3.23,3.92,
1.367,25.48,8.98,30.88,-1.38,3.23,3.92,
1.368,26.18,9.18,22.57,-1.38,3.23,3.92,
1.369,26.18,9.18,22.57,-0.21,2.86,3.28,
1.369,22.26,7.83,9.99,-0.21,2.86,3.28,
1.37,22.26,7.83,9.99,0.57,2.55,2.53,
1.37,15.06,7.26,-0.27,0.57,2.55,2.53,
1.371,15.06,7.26,-0.27,0.82,2.44,1.84,
1.371,6.99,5.91,-6.67,0.82,2.44,1.84,
1.372,6.99,5.91,-6.67,0.68,2.47,1.31,
1.372,1.10,4.58,-10.74,0.68,2.47,1.31,
1.373,1.10,4.58,-10.74,0.35,2.48,1.01,
1.373,-2.59,3.60,-13.16,0.35,2.48,1.01,
1.374,-2.59,3.60,-13.16,-0.02,2.26,0.88,
1.375,-2.59,3.60,-13.16,-0.40,1.78,0.82,
1.375,-4.44,2.30,-15.26,-0.40,1.78,0.82,
1.376,-4.44,2.30,-15.26,-0.88,1.31,0.85,
1.376,-3.30,2.01,-14.50,-0.88,1.31,0.85,
1.377,-3.30,2.01,-14.50,-1.40,0.92,0.82,
1.377,-1.47,1.73,-11.25,-1.40,0.92,0.82,
1.378,-1.47,1.73,-11.25,-1.85,0.68,0.72,
1.379,-0.14,0.99,-6.32,-1.85,0.68,0.72,
1.379,0.94,0.57,-0.24,-1.85,0.68,0.72,
1.38,0.94,0.57,-0.24,-2.16,0.57,0.60,
1.381,1.49,0.55,5.81,-2.16,0.57,0.60,
1.381,1.49,0.55,5.81,-2.27,0.56,0.46,
1.382,1.49,0.55,5.81,-2.15,0.58,0.32,
1.382,1.36,0.31,9.98,-2.15,0.58,0.32,
1.382,1.36,0.31,9.98,-1.86,0.58,0.19,
1.383,1.05,-0.01,12.09,-1.86,0.58,0.19,
1.383,1.05,-0.01,12.09,-1.47,0.56,0.10,
1.384,0.30,-0.69,12.61,-1.47,0.56,0.10,
1.384,-0.42,-1.40,12.03,-1.47,0.56,0.10,
1.385,-0.42,-1.40,12.03,-1.05,0.50,0.06,
1.385,-0.42,-1.40,12.03,-0.64,0.42,0.07,
1.385,-1.11,-1.83,10.52,-0.64,0.42,0.07,
1.386,-1.11,-1.83,10.52,-0.28,0.33,0.08,
1.386,-1.71,-1.85,8.43,-0.28,0.33,0.08,
1.387,-1.71,-1.85,8.43,-0.01,0.28,0.08,
1.387,-2.59,-1.99,5.95,-0.01,0.28,0.08,
1.387,-2.59,-1.99,5.95,0.14,0.29,0.08,
1.388,-3.70,-2.14,3.76,0.14,0.29,0.08,
1.388,-4.37,-2.00,2.04,0.14,0.29,0.08,
1.389,-4.37,-2.00,2.04,0.17,0.34,0.12,
1.389,-4.37,-2.00,2.04,0.12,0.42,0.20,
1.389,-4.84,-1.64,0.98,0.12,0.42,0.20,
1.39,-4.84,-1.64,0.98,0.01,0.49,0.28,
1.39,-5.59,-1.47,0.80,0.01,0.49,0.28,
1.39,-5.59,-1.47,0.80,-0.09,0.53,0.38,
1.391,-6.95,-1.94,0.89,-0.09,0.53,0.38,
1.391,-6.95,-1.94,0.89,-0.19,0.56,0.52,
1.391,-7.33,-2.00,1.19,-0.19,0.56,0.52,
1.392,-7.33,-2.00,1.19,-0.27,0.56,0.69,
1.392,-7.22,-2.23,1.68,-0.27,0.56,0.69,
1.392,-6.10,-2.85,2.06,-0.27,0.56,0.69,
1.393,-6.10,-2.85,2.06,-0.33,0.55,0.88,
1.393,-6.10,-2.85,2.06,-0.35,0.48,1.08,
1.393,-3.97,-2.98,1.98,-0.35,0.48,1.08,
1.394,-3.97,-2.98,1.98,-0.36,0.40,1.26,
1.394,-1.25,-3.14,0.77,-0.36,0.40,1.26,
1.401,-1.25,-3.14,0.77,-0.45,0.45,1.34,
1.401,-0.89,-4.60,0.10,-0.45,0.45,1.34,
1.404,-0.89,-4.60,0.10,-0.60,0.64,1.39,
1.404,-0.16,-4.63,1.12,-0.60,0.64,1.39,
1.425,-0.16,-4.63,1.12,-0.66,0.78,1.50,
1.426,1.37,-3.46,2.10,-0.66,0.78,1.50,
1.426,2.50,-2.54,2.74,-0.66,0.78,1.50,
1.427,2.50,-2.54,2.74,-0.64,0.81,1.58,
1.427,3.08,-2.17,2.84,-0.64,0.81,1.58,
1.428,3.08,-2.17,2.84,-0.56,0.78,1.61,
1.428,4.13,-1.47,2.46,-0.56,0.78,1.61,
1.428,4.13,-1.47,2.46,-0.45,0.74,1.62,
1.429,4.87,-0.49,1.91,-0.45,0.74,1.62,
1.429,4.87,-0.49,1.91,-0.34,0.70,1.59,
1.432,4.42,-0.18,0.56,-0.34,0.70,1.59,
1.433,4.42,-0.18,0.56,-0.26,0.71,1.52,
1.437,3.70,0.11,-0.85,-0.26,0.71,1.52,
1.438,3.70,0.11,-0.85,-0.28,0.78,1.48,
1.443,3.30,0.58,-1.66,-0.28,0.78,1.48,
1.444,3.30,0.58,-1.66,-0.40,0.87,1.50,
1.447,3.24,0.77,-2.31,-0.40,0.87,1.50,
1.448,3.24,0.77,-2.31,-0.54,0.95,1.55,
1.477,2.54,0.44,-2.79,-0.54,0.95,1.55,
1.477,2.54,0.44,-2.79,-0.71,1.00,1.60,
1.477,2.38,0.29,-3.05,-0.71,1.00,1.60,
1.478,2.38,0.29,-3.05,-0.90,1.07,1.67,
1.478,2.38,0.29,-3.05,-1.12,1.14,1.74,
1.478,2.07,0.13,-2.96,-1.12,1.14,1.74,
1.479,2.07,0.13,-2.96,-1.34,1.23,1.82,
1.479,1.53,-0.01,-2.46,-1.34,1.23,1.82,
1.48,1.53,-0.01,-2.46,-1.53,1.32,1.91,
1.48,0.59,-0.32,-1.85,-1.53,1.32,1.91,
1.48,-0.06,-0.23,-1.40,-1.53,1.32,1.91,
1.481,-0.06,-0.23,-1.40,-1.67,1.43,2.03,
1.481,-0.91,-0.28,-1.22,-1.67,1.43,2.03,
1.482,-0.91,-0.28,-1.22,-1.78,1.52,2.14,
1.486,-0.91,-0.28,-1.22,-1.89,1.59,2.25,
1.487,-1.45,-0.22,-1.02,-1.89,1.59,2.25,
1.491,-1.45,-0.22,-1.02,-2.00,1.60,2.35,
1.492,-1.94,-0.04,-0.55,-2.00,1.60,2.35,
1.496,-1.94,-0.04,-0.55,-2.09,1.52,2.45,
1.498,-2.13,0.02,0.27,-2.09,1.52,2.45,
1.501,-2.13,0.02,0.27,-2.12,1.38,2.55,
1.502,-2.61,-0.55,1.59,-2.12,1.38,2.55,
1.506,-2.61,-0.55,1.59,-2.07,1.24,2.67,
1.507,-1.17,0.04,2.61,-2.07,1.24,2.67,
1.511,-0.05,0.02,3.43,-2.07,1.24,2.67,
1.511,-0.05,0.02,3.43,-1.98,1.12,2.72,
1.515,1.07,-0.46,4.06,-1.98,1.12,2.72,
1.516,1.07,-0.46,4.06,-1.85,1.05,2.69,
1.52,3.05,0.25,4.99,-1.85,1.05,2.69,
1.52,3.05,0.25,4.99,-1.69,0.98,2.61,
1.527,5.04,1.31,5.92,-1.69,0.98,2.61,
1.528,5.04,1.31,5.92,-1.46,0.83,2.44,
1.53,5.04,1.31,5.92,-1.18,0.66,2.20,
1.531,6.01,1.82,6.35,-1.18,0.66,2.20,
1.535,6.01,1.82,6.35,-0.88,0.52,1.95,
1.535,6.55,2.39,6.43,-0.88,0.52,1.95,
1.544,6.55,2.39,6.43,-0.56,0.45,1.67,
1.545,6.45,2.85,5.99,-0.56,0.45,1.67,
1.546,6.45,2.85,5.99,-0.30,0.49,1.39,
1.546,5.02,2.68,4.94,-0.30,0.49,1.39,
1.55,2.87,2.20,3.36,-0.30,0.49,1.39,
1.55,2.87,2.20,3.36,-0.12,0.61,1.18,
1.554,0.47,1.25,1.38,-0.12,0.61,1.18,
1.555,0.47,1.25,1.38,-0.04,0.78,1.07,
1.559,-1.75,0.37,-0.34,-0.04,0.78,1.07,
1.56,-1.75,0.37,-0.34,-0.07,0.97,1.09,
1.564,-3.22,-0.08,-1.69,-0.07,0.97,1.09,
1.565,-3.22,-0.08,-1.69,-0.20,1.15,1.20,
1.569,-4.17,-0.26,-2.34,-0.20,1.15,1.20,
1.57,-4.17,-0.26,-2.34,-0.38,1.28,1.34,
1.574,-4.66,-0.57,-2.74,-0.38,1.28,1.34,
1.575,-4.66,-0.57,-2.74,-0.57,1.35,1.50,
1.579,-4.66,-0.57,-2.74,-0.76,1.35,1.64,
1.58,-4.70,-0.75,-2.31,-0.76,1.35,1.64,
1.584,-4.70,-0.75,-2.31,-0.91,1.32,1.77,
1.584,-4.35,-0.80,-1.72,-0.91,1.32,1.77,
1.59,-4.35,-0.80,-1.72,-1.03,1.24,1.89,
1.591,-4.29,-1.10,-1.24,-1.03,1.24,1.89,
1.594,-4.29,-1.10,-1.24,-1.14,1.22,2.00,
1.594,-4.07,-1.68,-0.66,-1.14,1.22,2.00,
1.599,-4.07,-1.68,-0.66,-1.23,1.26,2.11,
1.6,-3.70,-2.03,0.22,-1.23,1.26,2.11,
1.604,-3.14,-2.17,1.18,-1.23,1.26,2.11,
1.605,-3.14,-2.17,1.18,-1.28,1.34,2.20,
1.609,-2.17,-1.92,2.12,-1.28,1.34,2.20,
1.61,-2.17,-1.92,2.12,-1.30,1.36,2.29,
1.613,-2.17,-1.92,2.12,-1.25,1.30,2.36,
1.614,-1.81,-1.49,3.09,-1.25,1.30,2.36,
1.618,-1.52,-1.09,3.75,-1.25,1.30,2.36,
1.619,-1.52,-1.09,3.75,-1.15,1.20,2.40,
1.631,-0.93,-0.77,3.95,-1.15,1.20,2.40,
1.632,-0.93,-0.77,3.95,-1.02,1.10,2.44,
1.633,0.12,-0.49,3.92,-1.02,1.10,2.44,
1.634,0.12,-0.49,3.92,-0.88,1.01,2.46,
1.634,0.12,-0.49,3.92,-0.75,0.91,2.45,
1.635,1.51,-0.31,3.68,-0.75,0.91,2.45,
1.638,1.51,-0.31,3.68,-0.65,0.82,2.40,
1.639,2.87,-0.22,3.41,-0.65,0.82,2.40,
1.655,2.87,-0.22,3.41,-0.57,0.77,2.30,
1.657,3.66,-0.09,3.28,-0.57,0.77,2.30,
1.657,3.66,-0.09,3.28,-0.50,0.76,2.17,
1.658,3.72,0.16,3.09,-0.50,0.76,2.17,
1.658,3.72,0.16,3.09,-0.46,0.82,2.04,
1.659,3.03,0.49,2.72,-0.46,0.82,2.04,
1.659,3.03,0.49,2.72,-0.45,0.93,1.94,
1.66,2.09,0.80,1.92,-0.45,0.93,1.94,
1.662,2.09,0.80,1.92,-0.49,1.08,1.86,
1.663,1.36,1.13,0.94,-0.49,1.08,1.86,
1.667,0.84,1.83,0.25,-0.49,1.08,1.86,
1.667,0.84,1.83,0.25,-0.59,1.22,1.82,
1.671,1.13,1.57,-0.64,-0.59,1.22,1.82,
1.672,1.13,1.57,-0.64,-0.72,1.36,1.77,
1.677,1.27,0.93,-0.89,-0.72,1.36,1.77,
1.678,1.27,0.93,-0.89,-0.90,1.51,1.72,
1.682,1.08,0.20,-0.46,-0.90,1.51,1.72,
1.682,1.08,0.20,-0.46,-1.09,1.59,1.65,
1.687,1.08,0.20,-0.46,-1.23,1.65,1.58,
1.687,0.40,-0.63,0.46,-1.23,1.65,1.58,
1.692,0.40,-0.63,0.46,-1.30,1.73,1.56,
1.694,-0.17,-0.77,1.59,-1.30,1.73,1.56,
1.74,-0.49,-0.51,2.54,-1.30,1.73,1.56,
1.741,-0.49,-0.51,2.54,-1.29,1.77,1.59,
1.742,-0.49,-0.51,2.54,-1.20,1.74,1.63,
1.742,-0.44,-0.04,3.20,-1.20,1.74,1.63,
1.743,-0.44,-0.04,3.20,-1.03,1.62,1.63,
1.743,0.14,0.62,3.57,-1.03,1.62,1.63,
1.744,0.14,0.62,3.57,-0.82,1.41,1.59,
1.744,0.76,1.12,3.62,-0.82,1.41,1.59,
1.745,0.76,1.12,3.62,-0.60,1.19,1.53,
1.745,1.49,1.45,3.62,-0.60,1.19,1.53,
1.746,1.49,1.45,3.62,-0.40,0.96,1.43,
1.746,2.08,1.47,3.32,-0.40,0.96,1.43,
1.747,2.08,1.47,3.32,-0.23,0.78,1.31,
1.748,2.55,1.47,3.04,-0.23,0.78,1.31,
1.748,2.43,1.30,2.43,-0.23,0.78,1.31,
1.749,2.43,1.30,2.43,-0.09,0.67,1.18,
1.749,2.43,1.30,2.43,-0.00,0.61,1.07,
1.75,1.89,1.07,1.68,-0.00,0.61,1.07,
1.751,1.33,0.99,0.96,-0.00,0.61,1.07,
1.751,1.33,0.99,0.96,0.02,0.61,0.98,
1.752,0.84,0.77,0.22,0.02,0.61,0.98,
1.752,0.84,0.77,0.22,-0.01,0.67,0.91,
1.753,0.61,0.61,-0.20,-0.01,0.67,0.91,
1.753,0.61,0.61,-0.20,-0.08,0.76,0.88,
1.756,0.61,0.61,-0.20,-0.16,0.84,0.85,
1.757,1.12,0.82,-0.41,-0.16,0.84,0.85,
1.759,1.12,0.82,-0.41,-0.24,0.85,0.80,
1.76,1.71,0.94,-0.62,-0.24,0.85,0.80,
1.764,2.09,1.06,-0.47,-0.24,0.85,0.80,
1.765,2.09,1.06,-0.47,-0.31,0.86,0.70,
1.769,2.60,1.42,-0.23,-0.31,0.86,0.70,
1.77,2.60,1.42,-0.23,-0.35,0.83,0.60,
1.775,2.94,1.59,-0.01,-0.35,0.83,0.60,
1.776,2.94,1.59,-0.01,-0.37,0.76,0.48,
1.779,3.02,1.84,0.55,-0.37,0.76,0.48,
1.78,3.02,1.84,0.55,-0.35,0.63,0.33,
1.784,3.02,1.84,0.55,-0.30,0.44,0.19,
1.784,2.95,2.00,1.18,-0.30,0.44,0.19,
1.795,2.95,2.00,1.18,-0.20,0.23,0.05,
1.795,2.82,1.91,1.39,-0.20,0.23,0.05,
1.796,2.82,1.91,1.39,-0.11,0.08,-0.08,
1.796,2.31,1.35,1.42,-0.11,0.08,-0.08,
1.799,2.31,1.35,1.42,-0.05,0.02,-0.19,
1.799,1.51,0.49,1.55,-0.05,0.02,-0.19,
1.803,1.51,0.49,1.55,-0.02,0.05,-0.25,
1.804,0.43,-0.18,1.36,-0.02,0.05,-0.25,
1.814,0.43,-0.18,1.36,-0.02,0.12,-0.27,
1.815,-0.66,-0.46,1.10,-0.02,0.12,-0.27,
1.815,-0.66,-0.46,1.10,-0.04,0.21,-0.23,
1.816,-1.53,-0.58,1.01,-0.04,0.21,-0.23,
1.818,-1.99,-0.53,1.05,-0.04,0.21,-0.23,
1.818,-1.99,-0.53,1.05,-0.07,0.27,-0.17,
1.824,-1.99,-0.53,1.05,-0.09,0.30,-0.09,
1.825,-2.10,-0.36,1.08,-0.09,0.30,-0.09,
1.828,-2.01,-0.23,1.05,-0.09,0.30,-0.09,
1.828,-2.01,-0.23,1.05,-0.10,0.28,-0.02,
1.832,-2.01,-0.23,1.05,-0.11,0.23,0.04,
1.833,-1.99,-0.17,0.96,-0.11,0.23,0.04,
1.837,-1.90,-0.17,0.82,-0.11,0.23,0.04,
1.837,-1.90,-0.17,0.82,-0.12,0.18,0.10,
1.842,-1.90,-0.17,0.82,-0.13,0.16,0.16,
1.843,-1.63,-0.10,0.82,-0.13,0.16,0.16,
1.847,-1.63,-0.10,0.82,-0.13,0.15,0.20,
1.847,-1.22,0.01,0.86,-0.13,0.15,0.20,
1.852,-1.22,0.01,0.86,-0.14,0.14,0.23,
1.852,-0.62,0.17,0.96,-0.14,0.14,0.23,
1.862,-0.62,0.17,0.96,-0.14,0.15,0.25,
1.862,0.14,0.39,1.06,-0.14,0.15,0.25,
1.863,0.14,0.39,1.06,-0.14,0.17,0.23,
1.863,0.79,0.56,1.08,-0.14,0.17,0.23,
1.867,0.79,0.56,1.08,-0.14,0.21,0.18,
1.868,1.16,0.64,0.96,-0.14,0.21,0.18,
1.871,1.28,0.71,0.78,-0.14,0.21,0.18,
1.872,1.28,0.71,0.78,-0.15,0.25,0.12,
1.877,1.29,0.70,0.68,-0.15,0.25,0.12,
1.877,1.29,0.70,0.68,-0.17,0.30,0.05,
1.881,1.29,0.70,0.68,-0.20,0.35,0.00,
1.882,1.27,0.58,0.72,-0.20,0.35,0.00,
1.886,1.27,0.58,0.72,-0.22,0.38,-0.05,
1.886,1.19,0.49,0.84,-0.22,0.38,-0.05,
1.891,1.89,0.33,0.63,-0.22,0.38,-0.05,
1.892,1.89,0.33,0.63,-0.25,0.38,-0.11,
1.896,1.36,0.23,0.73,-0.25,0.38,-0.11,
1.896,1.36,0.23,0.73,-0.27,0.33,-0.19,
1.9,-0.09,0.16,1.54,-0.27,0.33,-0.19,
1.901,-0.09,0.16,1.54,-0.28,0.29,-0.28,
1.906,-1.01,0.04,1.92,-0.28,0.29,-0.28,
1.906,-1.01,0.04,1.92,-0.24,0.28,-0.31,
1.91,-1.01,0.04,1.92,-0.17,0.24,-0.29,
1.911,-1.28,-0.29,1.59,-0.17,0.24,-0.29,
1.915,-1.60,-0.59,1.09,-0.17,0.24,-0.29,
1.916,-1.60,-0.59,1.09,-0.10,0.14,-0.26,
1.92,-2.12,-0.87,0.83,-0.10,0.14,-0.26,
1.92,-2.12,-0.87,0.83,-0.03,0.04,-0.23,
1.925,-2.68,-0.99,0.62,-0.03,0.04,-0.23,
1.926,-2.68,-0.99,0.62,0.01,-0.07,-0.18,
1.93,-2.85,-0.93,0.32,0.01,-0.07,-0.18,
1.931,-2.85,-0.93,0.32,0.05,-0.17,-0.11,
1.935,-2.27,-0.54,-0.17,0.05,-0.17,-0.11,
1.936,-2.27,-0.54,-0.17,0.09,-0.27,-0.03,
1.975,-2.27,-0.54,-0.17,0.12,-0.37,0.03,
1.975,-1.51,0.08,-1.92,0.12,-0.37,0.03,
1.976,-1.51,0.08,-1.92,0.07,-0.38,0.05,
1.977,-0.84,0.67,-4.12,0.07,-0.38,0.05,
1.977,-0.84,0.67,-4.12,-0.09,-0.36,0.05,
1.978,-0.65,1.32,-4.31,-0.09,-0.36,0.05,
1.979,-0.65,1.32,-4.31,-0.33,-0.34,0.05,
1.979,-0.19,1.23,-3.84,-0.33,-0.34,0.05,
1.98,1.18,0.82,-3.12,-0.33,-0.34,0.05,
1.981,1.18,0.82,-3.12,-0.57,-0.29,0.08,
1.981,1.18,0.82,-3.12,-0.76,-0.17,0.06,
1.982,2.28,0.56,-1.70,-0.76,-0.17,0.06,
1.983,2.28,0.56,-1.70,-0.88,-0.03,-0.01,
1.983,2.66,0.49,-0.06,-0.88,-0.03,-0.01,
1.984,2.66,0.49,-0.06,-0.94,0.06,-0.10,
1.985,2.56,0.47,1.42,-0.94,0.06,-0.10,
1.986,2.56,0.47,1.42,-0.91,0.04,-0.18,
1.986,1.51,0.65,2.91,-0.91,0.04,-0.18,
1.987,0.13,0.66,4.18,-0.91,0.04,-0.18,
1.988,0.13,0.66,4.18,-0.81,-0.06,-0.23,
1.988,-0.75,0.15,4.77,-0.81,-0.06,-0.23,
1.989,-0.75,0.15,4.77,-0.66,-0.15,-0.24,
1.994,-1.54,-0.54,5.10,-0.66,-0.15,-0.24,
1.995,-1.54,-0.54,5.10,-0.51,-0.23,-0.22,
1.998,-1.54,-0.54,5.10,-0.38,-0.29,-0.19,
1.999,-2.65,-0.89,6.18,-0.38,-0.29,-0.19,
2.003,-2.65,-0.89,6.18,-0.23,-0.32,-0.12,
2.004,-3.01,-0.83,6.39,-0.23,-0.32,-0.12,
2.012,-1.98,-0.53,5.84,-0.23,-0.32,-0.12,
2.013,-1.98,-0.53,5.84,-0.06,-0.32,-0.04,
2.014,-0.66,0.19,5.47,-0.06,-0.32,-0.04,
2.014,-0.66,0.19,5.47,0.09,-0.37,-0.01,
2.019,-0.66,0.19,5.47,0.25,-0.48,-0.02,
2.019,-0.02,0.49,4.81,0.25,-0.48,-0.02,
2.022,0.13,0.47,3.93,0.25,-0.48,-0.02,
2.023,0.13,0.47,3.93,0.40,-0.57,-0.07,
2.03,0.13,0.47,3.93,0.52,-0.65,-0.11,
2.031,-0.02,0.55,3.17,0.52,-0.65,-0.11,
2.032,-0.02,0.55,3.17,0.61,-0.69,-0.13,
2.033,-0.37,0.70,1.87,0.61,-0.69,-0.13,
2.037,-0.40,0.85,0.20,0.61,-0.69,-0.13,
2.038,-0.40,0.85,0.20,0.64,-0.66,-0.13,
2.042,-0.40,0.85,0.20,0.58,-0.57,-0.11,
2.043,0.18,0.96,-1.51,0.58,-0.57,-0.11,
2.047,0.18,0.96,-1.51,0.43,-0.45,-0.09,
2.048,0.61,1.02,-2.72,0.43,-0.45,-0.09,
2.052,0.56,0.98,-2.55,0.43,-0.45,-0.09,
2.053,0.56,0.98,-2.55,0.20,-0.34,-0.09,
2.06,0.56,0.98,-2.55,-0.02,-0.28,-0.10,
2.06,0.30,0.96,-1.35,-0.02,-0.28,-0.10,
