
time,ax,ay,az,wx,wy,wz,
0.003,-0.31,-0.19,-3.95,-0.29,-0.92,-0.10,
0.003,-0.31,-0.19,-3.95,-0.32,-1.01,-0.06,
0.004,-0.31,-0.19,-3.95,-0.36,-1.10,-0.02,
0.004,-0.18,-0.23,-3.95,-0.36,-1.10,-0.02,
0.033,-0.18,-0.23,-3.95,-0.39,-1.18,0.02,
0.034,0.11,-0.21,-3.96,-0.39,-1.18,0.02,
0.034,0.11,-0.21,-3.96,-0.41,-1.27,0.05,
0.035,0.39,-0.14,-3.98,-0.41,-1.27,0.05,
0.035,0.39,-0.14,-3.98,-0.44,-1.36,0.06,
0.035,0.66,-0.04,-3.99,-0.44,-1.36,0.06,
0.036,0.66,-0.04,-3.99,-0.46,-1.44,0.06,
0.036,0.96,-0.00,-4.09,-0.46,-1.44,0.06,
0.037,0.96,-0.00,-4.09,-0.49,-1.51,0.05,
0.038,1.09,-0.02,-4.14,-0.49,-1.51,0.05,
0.038,1.09,-0.02,-4.14,-0.52,-1.59,0.05,
0.038,1.16,-0.06,-4.07,-0.52,-1.59,0.05,
0.039,1.21,-0.12,-4.10,-0.52,-1.59,0.05,
0.039,1.21,-0.12,-4.10,-0.54,-1.66,0.04,
0.042,1.21,-0.12,-4.10,-0.58,-1.70,0.02,
0.042,1.17,-0.19,-4.05,-0.58,-1.70,0.02,
0.047,1.07,-0.28,-4.04,-0.58,-1.70,0.02,
0.047,1.07,-0.28,-4.04,-0.63,-1.74,0.00,
0.051,1.07,-0.28,-4.04,-0.68,-1.77,-0.01,
0.052,0.93,-0.43,-3.97,-0.68,-1.77,-0.01,
0.057,0.93,-0.43,-3.97,-0.72,-1.80,-0.02,
0.058,0.90,-0.60,-3.83,-0.72,-1.80,-0.02,
0.061,0.90,-0.60,-3.83,-0.76,-1.80,-0.02,
0.062,0.84,-0.75,-3.82,-0.76,-1.80,-0.02,
0.066,0.80,-0.92,-3.91,-0.76,-1.80,-0.02,
0.066,0.80,-0.92,-3.91,-0.79,-1.79,-0.01,
0.071,0.88,-1.17,-4.33,-0.79,-1.79,-0.01,
0.072,0.88,-1.17,-4.33,-0.81,-1.76,-0.00,
0.076,0.57,-1.26,-4.53,-0.81,-1.76,-0.00,
0.077,0.57,-1.26,-4.53,-0.85,-1.74,0.01,
0.081,0.57,-1.26,-4.53,-0.90,-1.74,0.03,
0.081,0.02,-1.39,-4.60,-0.90,-1.74,0.03,
0.086,-0.19,-1.54,-4.79,-0.90,-1.74,0.03,
0.087,-0.19,-1.54,-4.79,-0.95,-1.77,0.08,
0.091,-0.24,-1.72,-4.87,-0.95,-1.77,0.08,
0.091,-0.24,-1.72,-4.87,-1.00,-1.81,0.13,
0.096,-0.15,-1.87,-4.77,-1.00,-1.81,0.13,
0.097,-0.15,-1.87,-4.77,-1.04,-1.89,0.18,
0.1,-0.15,-1.87,-4.77,-1.06,-1.98,0.23,
0.101,0.03,-1.97,-4.61,-1.06,-1.98,0.23,
0.113,0.36,-2.00,-4.51,-1.06,-1.98,0.23,
0.114,0.36,-2.00,-4.51,-1.06,-2.10,0.28,
0.114,0.62,-2.01,-4.39,-1.06,-2.10,0.28,
0.115,0.62,-2.01,-4.39,-1.04,-2.25,0.30,
0.116,0.62,-2.01,-4.39,-1.00,-2.41,0.32,
0.116,0.74,-2.12,-4.36,-1.00,-2.41,0.32,
0.121,0.64,-2.23,-4.39,-1.00,-2.41,0.32,
0.122,0.64,-2.23,-4.39,-0.94,-2.60,0.32,
0.125,0.64,-2.45,-4.52,-0.94,-2.60,0.32,
0.126,0.64,-2.45,-4.52,-0.89,-2.82,0.33,
0.129,0.64,-2.45,-4.52,-0.85,-3.04,0.35,
0.13,0.78,-2.51,-4.69,-0.85,-3.04,0.35,
0.134,1.03,-2.62,-4.92,-0.85,-3.04,0.35,
0.135,1.03,-2.62,-4.92,-0.80,-3.26,0.38,
0.168,1.03,-2.62,-4.92,-0.77,-3.44,0.41,
0.169,1.23,-2.70,-5.16,-0.77,-3.44,0.41,
0.17,1.29,-2.88,-5.45,-0.77,-3.44,0.41,
0.17,1.29,-2.88,-5.45,-0.75,-3.61,0.44,
0.171,1.22,-3.18,-5.69,-0.75,-3.61,0.44,
0.172,1.22,-3.18,-5.69,-0.74,-3.77,0.46,
0.172,1.22,-3.18,-5.69,-0.75,-3.93,0.49,
0.173,1.07,-3.54,-5.96,-0.75,-3.93,0.49,
0.173,0.86,-4.00,-6.17,-0.75,-3.93,0.49,
0.174,0.86,-4.00,-6.17,-0.76,-4.10,0.53,
0.174,0.86,-4.00,-6.17,-0.78,-4.29,0.57,
0.175,0.51,-4.49,-6.32,-0.78,-4.29,0.57,
0.175,0.51,-4.49,-6.32,-0.81,-4.49,0.64,
0.176,0.27,-4.98,-6.36,-0.81,-4.49,0.64,
0.176,0.27,-4.98,-6.36,-0.83,-4.69,0.73,
0.176,0.09,-5.44,-6.25,-0.83,-4.69,0.73,
0.179,0.09,-5.44,-6.25,-0.84,-4.88,0.84,
0.179,-0.09,-5.94,-5.97,-0.84,-4.88,0.84,
0.196,-0.09,-5.94,-5.97,-0.83,-5.07,0.98,
0.196,-0.26,-6.36,-5.74,-0.83,-5.07,0.98,
0.197,-0.53,-6.75,-5.19,-0.83,-5.07,0.98,
0.198,-0.53,-6.75,-5.19,-0.80,-5.27,1.13,
0.198,-0.53,-6.75,-5.19,-0.74,-5.46,1.29,
0.199,-0.42,-7.07,-5.04,-0.74,-5.46,1.29,
0.199,-0.42,-7.07,-5.04,-0.66,-5.67,1.45,
0.2,-0.31,-7.28,-4.71,-0.66,-5.67,1.45,
0.212,-0.31,-7.28,-4.71,-0.56,-5.90,1.60,
0.213,-0.13,-7.32,-4.13,-0.56,-5.90,1.60,
0.214,-0.13,-7.32,-4.13,-0.42,-6.13,1.74,
0.214,0.21,-7.32,-3.75,-0.42,-6.13,1.74,
0.215,0.72,-7.30,-3.47,-0.42,-6.13,1.74,
0.215,0.72,-7.30,-3.47,-0.27,-6.35,1.85,
0.217,1.19,-7.38,-3.47,-0.27,-6.35,1.85,
0.218,1.19,-7.38,-3.47,-0.11,-6.53,1.95,
0.245,1.37,-7.51,-3.47,-0.11,-6.53,1.95,
0.246,1.37,-7.51,-3.47,0.03,-6.66,2.01,
0.247,1.37,-7.51,-3.47,0.14,-6.71,2.06,
0.247,1.50,-7.75,-3.68,0.14,-6.71,2.06,
0.248,1.50,-7.75,-3.68,0.21,-6.74,2.10,
0.248,1.55,-8.17,-3.90,0.21,-6.74,2.10,
0.248,1.25,-8.61,-3.96,0.21,-6.74,2.10,
0.249,1.25,-8.61,-3.96,0.24,-6.73,2.14,
0.25,1.25,-8.61,-3.96,0.26,-6.65,2.20,
0.25,0.85,-8.96,-3.99,0.26,-6.65,2.20,
0.25,0.85,-8.96,-3.99,0.25,-6.53,2.28,
0.251,0.99,-9.36,-4.71,0.25,-6.53,2.28,
0.254,0.99,-9.36,-4.71,0.21,-6.39,2.36,
0.256,0.67,-9.50,-4.40,0.21,-6.39,2.36,
0.256,0.67,-9.50,-4.40,0.15,-6.21,2.47,
0.257,0.69,-9.77,-4.47,0.15,-6.21,2.47,
0.264,0.92,-10.08,-4.68,0.15,-6.21,2.47,
0.265,0.92,-10.08,-4.68,0.08,-6.05,2.60,
0.266,0.92,-10.08,-4.68,0.00,-5.88,2.71,
0.267,0.71,-10.26,-4.30,0.00,-5.88,2.71,
0.271,0.71,-10.26,-4.30,-0.07,-5.70,2.83,
0.272,0.78,-10.55,-4.21,-0.07,-5.70,2.83,
0.28,0.78,-10.55,-4.21,-0.16,-5.55,2.95,
0.281,1.01,-10.56,-4.24,-0.16,-5.55,2.95,
0.281,1.32,-10.60,-4.34,-0.16,-5.55,2.95,
0.282,1.32,-10.60,-4.34,-0.29,-5.40,3.06,
0.286,1.64,-10.67,-4.33,-0.29,-5.40,3.06,
0.287,1.64,-10.67,-4.33,-0.45,-5.24,3.15,
0.291,2.29,-10.92,-4.58,-0.45,-5.24,3.15,
0.292,2.29,-10.92,-4.58,-0.65,-5.05,3.23,
0.296,2.29,-10.92,-4.58,-0.90,-4.84,3.29,
0.296,3.01,-11.05,-4.34,-0.90,-4.84,3.29,
0.301,3.01,-11.05,-4.34,-1.16,-4.59,3.32,
0.301,3.33,-11.34,-3.89,-1.16,-4.59,3.32,
0.313,3.33,-11.34,-3.89,-1.43,-4.30,3.36,
0.314,3.66,-11.71,-3.43,-1.43,-4.30,3.36,
0.315,3.66,-11.71,-3.43,-1.72,-4.01,3.39,
0.315,4.06,-12.07,-3.04,-1.72,-4.01,3.39,
0.316,4.06,-12.07,-3.04,-2.02,-3.76,3.43,
0.316,4.06,-12.40,-2.38,-2.02,-3.76,3.43,
0.32,4.06,-12.40,-2.38,-2.29,-3.53,3.49,
0.321,4.20,-12.76,-1.57,-2.29,-3.53,3.49,
0.325,4.39,-13.07,-0.79,-2.29,-3.53,3.49,
0.326,4.39,-13.07,-0.79,-2.53,-3.32,3.55,
0.33,4.39,-13.07,-0.79,-2.72,-3.15,3.62,
0.331,4.52,-13.35,0.11,-2.72,-3.15,3.62,
0.335,4.63,-13.66,0.99,-2.72,-3.15,3.62,
0.335,4.63,-13.66,0.99,-2.86,-3.02,3.70,
0.347,4.63,-13.66,0.99,-2.96,-2.97,3.80,
0.347,4.79,-13.84,1.86,-2.96,-2.97,3.80,
0.348,4.79,-13.84,1.86,-3.01,-2.97,3.90,
0.348,5.08,-13.92,2.71,-3.01,-2.97,3.90,
0.349,5.08,-13.92,2.71,-3.02,-2.99,4.02,
0.349,5.48,-14.01,3.51,-3.02,-2.99,4.02,
0.356,5.48,-14.01,3.51,-2.97,-3.02,4.13,
0.357,5.90,-14.03,4.24,-2.97,-3.02,4.13,
0.361,5.90,-14.03,4.24,-2.89,-3.04,4.23,
0.362,6.15,-13.99,4.85,-2.89,-3.04,4.23,
0.363,6.20,-13.89,5.22,-2.89,-3.04,4.23,
0.364,6.20,-13.89,5.22,-2.77,-3.04,4.33,
0.368,6.20,-13.89,5.22,-2.64,-3.03,4.43,
0.369,6.30,-13.78,5.37,-2.64,-3.03,4.43,
0.386,6.30,-13.78,5.37,-2.53,-2.99,4.54,
0.388,6.59,-13.67,5.33,-2.53,-2.99,4.54,
0.39,6.99,-13.60,5.26,-2.53,-2.99,4.54,
0.39,6.99,-13.60,5.26,-2.43,-2.93,4.66,
0.391,6.99,-13.60,5.26,-2.36,-2.83,4.76,
0.391,7.41,-13.51,5.06,-2.36,-2.83,4.76,
0.392,7.41,-13.51,5.06,-2.31,-2.71,4.87,
0.392,7.82,-13.34,4.87,-2.31,-2.71,4.87,
0.393,7.82,-13.34,4.87,-2.28,-2.57,4.96,
0.393,8.20,-13.12,4.66,-2.28,-2.57,4.96,
0.398,8.20,-13.12,4.66,-2.29,-2.42,5.04,
0.399,8.59,-12.93,4.38,-2.29,-2.42,5.04,
0.403,8.59,-12.93,4.38,-2.32,-2.27,5.11,
0.404,9.00,-12.68,4.13,-2.32,-2.27,5.11,
0.408,9.00,-12.68,4.13,-2.38,-2.12,5.15,
0.408,9.32,-12.51,3.99,-2.38,-2.12,5.15,
0.413,9.55,-12.34,4.02,-2.38,-2.12,5.15,
0.414,9.55,-12.34,4.02,-2.46,-1.97,5.19,
0.418,9.55,-12.34,4.02,-2.56,-1.83,5.22,
0.418,9.79,-12.19,4.03,-2.56,-1.83,5.22,
0.423,10.18,-12.02,4.24,-2.56,-1.83,5.22,
0.424,10.18,-12.02,4.24,-2.67,-1.70,5.24,
0.457,10.18,-12.02,4.24,-2.78,-1.58,5.25,
0.458,10.63,-11.86,4.46,-2.78,-1.58,5.25,
0.459,11.08,-11.67,4.76,-2.78,-1.58,5.25,
0.459,11.08,-11.67,4.76,-2.89,-1.45,5.25,
0.46,11.08,-11.67,4.76,-2.99,-1.30,5.24,
0.46,11.50,-11.43,5.14,-2.99,-1.30,5.24,
0.461,11.50,-11.43,5.14,-3.09,-1.12,5.22,
0.462,11.69,-11.11,5.51,-3.09,-1.12,5.22,
0.462,11.69,-11.11,5.51,-3.17,-0.91,5.20,
0.463,11.73,-10.87,5.62,-3.17,-0.91,5.20,
0.464,11.73,-10.87,5.62,-3.26,-0.67,5.17,
0.464,11.45,-10.64,5.63,-3.26,-0.67,5.17,
0.465,11.45,-10.64,5.63,-3.35,-0.43,5.16,
0.465,11.09,-10.52,5.57,-3.35,-0.43,5.16,
0.466,11.09,-10.52,5.57,-3.45,-0.21,5.16,
0.466,10.73,-10.42,5.49,-3.45,-0.21,5.16,
0.467,10.73,-10.42,5.49,-3.55,-0.01,5.17,
0.468,10.48,-10.27,5.46,-3.55,-0.01,5.17,
0.482,10.25,-10.08,5.49,-3.55,-0.01,5.17,
0.483,10.25,-10.08,5.49,-3.66,0.17,5.19,
0.483,10.25,-10.08,5.49,-3.77,0.32,5.21,
0.484,10.06,-9.88,5.57,-3.77,0.32,5.21,
0.484,10.06,-9.88,5.57,-3.87,0.45,5.23,
0.485,9.97,-9.67,5.71,-3.87,0.45,5.23,
0.517,9.97,-9.67,5.71,-3.96,0.57,5.24,
0.518,9.81,-9.59,5.86,-3.96,0.57,5.24,
0.519,9.81,-9.59,5.86,-4.03,0.67,5.26,
0.519,9.66,-9.53,6.06,-4.03,0.67,5.26,
0.52,9.66,-9.53,6.06,-4.08,0.74,5.29,
0.52,9.55,-9.46,6.32,-4.08,0.74,5.29,
0.521,9.60,-9.26,6.69,-4.08,0.74,5.29,
0.521,9.60,-9.26,6.69,-4.12,0.78,5.30,
0.521,9.60,-9.26,6.69,-4.12,0.78,5.32,
0.522,9.75,-8.96,7.05,-4.12,0.78,5.32,
0.522,9.99,-8.55,7.35,-4.12,0.78,5.32,
0.523,9.99,-8.55,7.35,-4.10,0.73,5.31,
0.523,9.99,-8.55,7.35,-4.05,0.67,5.30,
0.524,10.10,-8.14,7.64,-4.05,0.67,5.30,
0.524,10.10,-8.14,7.64,-3.98,0.58,5.27,
0.525,10.28,-7.72,7.86,-3.98,0.58,5.27,
0.525,10.28,-7.72,7.86,-3.89,0.49,5.23,
0.526,10.42,-7.22,8.03,-3.89,0.49,5.23,
0.547,10.66,-6.76,8.13,-3.89,0.49,5.23,
0.548,10.66,-6.76,8.13,-3.79,0.40,5.17,
0.549,10.66,-6.76,8.13,-3.69,0.30,5.10,
0.549,10.94,-6.33,8.20,-3.69,0.30,5.10,
0.55,10.94,-6.33,8.20,-3.59,0.20,5.00,
0.55,11.30,-6.02,8.27,-3.59,0.20,5.00,
0.551,11.30,-6.02,8.27,-3.49,0.11,4.88,
0.551,11.69,-5.64,8.49,-3.49,0.11,4.88,
0.551,11.69,-5.64,8.49,-3.38,0.03,4.74,
0.552,12.02,-5.21,8.85,-3.38,0.03,4.74,
0.569,12.02,-5.21,8.85,-3.25,-0.04,4.56,
0.57,12.23,-4.74,9.27,-3.25,-0.04,4.56,
0.571,12.23,-4.74,9.27,-3.11,-0.12,4.38,
0.571,12.32,-4.36,9.72,-3.11,-0.12,4.38,
0.572,12.32,-4.36,9.72,-2.95,-0.19,4.18,
0.573,12.23,-4.03,10.17,-2.95,-0.19,4.18,
0.574,12.23,-4.03,10.17,-2.77,-0.26,3.99,
0.575,11.94,-3.66,10.43,-2.77,-0.26,3.99,
0.575,11.47,-3.32,10.60,-2.77,-0.26,3.99,
0.576,11.47,-3.32,10.60,-2.57,-0.31,3.81,
0.582,11.47,-3.32,10.60,-2.37,-0.34,3.66,
0.584,10.96,-3.00,10.62,-2.37,-0.34,3.66,
0.584,10.57,-2.72,10.54,-2.37,-0.34,3.66,
0.585,10.57,-2.72,10.54,-2.17,-0.37,3.55,
0.588,10.23,-2.50,10.44,-2.17,-0.37,3.55,
0.59,10.23,-2.50,10.44,-1.97,-0.39,3.47,
0.606,10.23,-2.50,10.44,-1.78,-0.42,3.41,
0.608,9.98,-2.27,10.25,-1.78,-0.42,3.41,
0.608,9.84,-2.09,10.04,-1.78,-0.42,3.41,
0.609,9.84,-2.09,10.04,-1.61,-0.44,3.38,
0.609,9.84,-2.09,10.04,-1.45,-0.47,3.36,
0.61,9.84,-1.82,9.85,-1.45,-0.47,3.36,
0.61,9.84,-1.82,9.85,-1.31,-0.52,3.35,
0.61,9.96,-1.55,9.73,-1.31,-0.52,3.35,
0.613,10.12,-1.23,9.66,-1.31,-0.52,3.35,
0.613,10.12,-1.23,9.66,-1.19,-0.58,3.35,
0.617,10.12,-1.23,9.66,-1.08,-0.64,3.35,
0.618,10.38,-0.90,9.56,-1.08,-0.64,3.35,
0.624,10.38,-0.90,9.56,-0.98,-0.68,3.35,
0.625,10.69,-0.54,9.49,-0.98,-0.68,3.35,
0.627,10.69,-0.54,9.49,-0.89,-0.71,3.35,
0.628,10.91,-0.21,9.35,-0.89,-0.71,3.35,
0.632,11.18,0.12,9.21,-0.89,-0.71,3.35,
0.633,11.18,0.12,9.21,-0.79,-0.73,3.35,
0.637,11.18,0.12,9.21,-0.69,-0.76,3.36,
0.637,11.54,0.34,9.03,-0.69,-0.76,3.36,
0.642,11.98,0.50,8.85,-0.69,-0.76,3.36,
0.642,11.98,0.50,8.85,-0.59,-0.80,3.39,
0.647,12.42,0.75,8.70,-0.59,-0.80,3.39,
0.648,12.42,0.75,8.70,-0.51,-0.85,3.43,
0.651,12.68,1.14,8.47,-0.51,-0.85,3.43,
0.652,12.68,1.14,8.47,-0.43,-0.88,3.46,
0.666,12.68,1.14,8.47,-0.38,-0.84,3.48,
0.667,12.67,1.55,8.15,-0.38,-0.84,3.48,
0.668,12.67,1.55,8.15,-0.38,-0.74,3.48,
0.668,12.65,2.04,7.84,-0.38,-0.74,3.48,
0.669,12.65,2.04,7.84,-0.41,-0.61,3.48,
0.669,12.78,2.50,7.65,-0.41,-0.61,3.48,
0.714,12.78,2.50,7.65,-0.46,-0.49,3.46,
0.715,12.99,2.91,7.54,-0.46,-0.49,3.46,
0.715,12.99,2.91,7.54,-0.52,-0.37,3.41,
0.716,13.21,3.39,7.64,-0.52,-0.37,3.41,
0.717,13.21,3.39,7.64,-0.59,-0.27,3.34,
0.717,13.44,3.89,7.80,-0.59,-0.27,3.34,
0.718,13.44,3.89,7.80,-0.67,-0.18,3.25,
0.718,13.60,4.42,7.93,-0.67,-0.18,3.25,
0.719,13.60,4.42,7.93,-0.74,-0.12,3.15,
0.719,13.70,4.86,7.97,-0.74,-0.12,3.15,
0.72,13.70,4.86,7.97,-0.82,-0.06,3.04,
0.72,13.76,5.19,7.99,-0.82,-0.06,3.04,
0.721,13.76,5.19,7.99,-0.90,0.01,2.94,
0.721,13.79,5.32,8.01,-0.90,0.01,2.94,
0.722,13.82,5.37,8.14,-0.90,0.01,2.94,
0.722,13.82,5.37,8.14,-0.99,0.10,2.84,
0.723,13.82,5.37,8.14,-1.07,0.18,2.74,
0.723,13.88,5.43,8.45,-1.07,0.18,2.74,
0.724,13.88,5.43,8.45,-1.15,0.27,2.65,
0.724,14.02,5.54,8.90,-1.15,0.27,2.65,
0.725,14.17,5.71,9.40,-1.15,0.27,2.65,
0.725,14.17,5.71,9.40,-1.21,0.35,2.56,
0.726,14.31,5.87,9.85,-1.21,0.35,2.56,
0.726,14.31,5.87,9.85,-1.25,0.43,2.47,
0.733,14.31,5.87,9.85,-1.26,0.51,2.39,
0.734,14.42,6.02,10.22,-1.26,0.51,2.39,
0.735,14.42,6.02,10.22,-1.26,0.60,2.31,
0.735,14.59,6.12,10.48,-1.26,0.60,2.31,
0.746,14.76,6.21,10.75,-1.26,0.60,2.31,
0.747,14.76,6.21,10.75,-1.25,0.70,2.22,
0.748,14.76,6.21,10.75,-1.22,0.80,2.14,
0.748,14.96,6.32,11.00,-1.22,0.80,2.14,
0.749,14.96,6.32,11.00,-1.18,0.90,2.03,
0.749,15.05,6.45,11.24,-1.18,0.90,2.03,
0.754,15.05,6.45,11.24,-1.11,0.99,1.93,
0.754,15.05,6.55,11.53,-1.11,0.99,1.93,
0.765,15.05,6.55,11.53,-1.04,1.07,1.83,
0.765,14.92,6.68,11.89,-1.04,1.07,1.83,
0.766,14.78,6.74,12.30,-1.04,1.07,1.83,
0.766,14.78,6.74,12.30,-0.94,1.13,1.75,
0.768,14.80,6.92,12.67,-0.94,1.13,1.75,
0.769,14.80,6.92,12.67,-0.82,1.18,1.67,
0.782,14.89,7.13,13.04,-0.82,1.18,1.67,
0.783,14.89,7.13,13.04,-0.68,1.24,1.60,
0.783,14.89,7.13,13.04,-0.51,1.29,1.54,
0.783,14.97,7.31,13.24,-0.51,1.29,1.54,
0.784,15.07,7.40,13.28,-0.51,1.29,1.54,
0.785,15.07,7.40,13.28,-0.32,1.37,1.50,
0.788,15.07,7.40,13.28,-0.13,1.45,1.46,
0.789,15.29,7.42,13.14,-0.13,1.45,1.46,
0.793,15.29,7.42,13.14,0.07,1.53,1.45,
0.794,15.64,7.49,12.82,0.07,1.53,1.45,
0.798,15.64,7.49,12.82,0.26,1.59,1.44,
0.798,15.93,7.60,12.42,0.26,1.59,1.44,
0.803,16.23,7.81,12.13,0.26,1.59,1.44,
0.804,16.23,7.81,12.13,0.43,1.61,1.43,
0.82,16.70,8.13,11.96,0.43,1.61,1.43,
0.821,16.70,8.13,11.96,0.60,1.59,1.42,
0.822,16.70,8.13,11.96,0.77,1.52,1.38,
0.823,17.40,8.55,11.92,0.77,1.52,1.38,
0.824,18.21,9.09,11.89,0.77,1.52,1.38,
0.825,18.21,9.09,11.89,0.95,1.41,1.32,
0.825,18.94,9.65,11.84,0.95,1.41,1.32,
0.825,18.94,9.65,11.84,1.14,1.27,1.20,
0.828,19.63,10.18,11.73,1.14,1.27,1.20,
0.829,19.63,10.18,11.73,1.34,1.10,1.04,
0.832,20.35,10.43,11.49,1.34,1.10,1.04,
0.833,20.35,10.43,11.49,1.54,0.94,0.82,
0.837,20.35,10.43,11.49,1.75,0.76,0.54,
0.837,20.92,10.39,11.09,1.75,0.76,0.54,
0.842,20.92,10.39,11.09,1.96,0.57,0.22,
0.843,21.42,10.76,11.17,1.96,0.57,0.22,
0.847,21.42,10.76,11.17,2.17,0.40,-0.14,
0.848,21.40,10.85,11.64,2.17,0.40,-0.14,
0.852,21.40,10.85,11.64,2.42,0.25,-0.52,
0.852,21.41,10.65,11.60,2.42,0.25,-0.52,
0.857,20.98,10.04,11.22,2.42,0.25,-0.52,
0.858,20.98,10.04,11.22,2.69,0.09,-0.89,
0.862,20.17,8.95,10.70,2.69,0.09,-0.89,
0.862,20.17,8.95,10.70,2.95,-0.10,-1.21,
0.866,19.58,7.78,10.18,2.95,-0.10,-1.21,
0.867,19.58,7.78,10.18,3.19,-0.31,-1.46,
0.871,19.32,6.72,9.75,3.19,-0.31,-1.46,
0.872,19.32,6.72,9.75,3.41,-0.56,-1.64,
0.881,19.34,5.76,9.57,3.41,-0.56,-1.64,
0.883,19.34,5.76,9.57,3.60,-0.83,-1.77,
0.884,19.59,4.84,9.66,3.60,-0.83,-1.77,
0.884,19.59,4.84,9.66,3.77,-1.13,-1.85,
0.886,19.59,4.84,9.66,3.93,-1.43,-1.92,
0.886,20.21,3.95,9.88,3.93,-1.43,-1.92,
0.917,21.17,3.14,10.13,3.93,-1.43,-1.92,
0.919,21.17,3.14,10.13,4.11,-1.75,-1.99,
0.92,21.17,3.14,10.13,4.28,-2.10,-2.06,
0.921,22.39,2.26,10.42,4.28,-2.10,-2.06,
0.921,23.49,1.35,10.73,4.28,-2.10,-2.06,
0.922,23.49,1.35,10.73,4.45,-2.49,-2.15,
0.923,24.66,0.42,11.11,4.45,-2.49,-2.15,
0.924,24.66,0.42,11.11,4.61,-2.90,-2.26,
0.925,26.10,-0.44,11.50,4.61,-2.90,-2.26,
0.926,26.10,-0.44,11.50,4.76,-3.30,-2.38,
0.967,26.10,-0.44,11.50,4.90,-3.68,-2.56,
0.967,27.87,-1.21,11.85,4.90,-3.68,-2.56,
0.968,29.77,-2.12,12.28,4.90,-3.68,-2.56,
0.969,29.77,-2.12,12.28,5.03,-3.99,-2.80,
0.97,31.52,-3.21,12.81,5.03,-3.99,-2.80,
0.97,31.52,-3.21,12.81,5.15,-4.22,-3.15,
0.971,32.87,-4.37,13.43,5.15,-4.22,-3.15,
0.972,32.87,-4.37,13.43,5.29,-4.34,-3.59,
0.972,32.87,-4.37,13.43,5.44,-4.36,-4.13,
0.973,33.84,-5.52,13.86,5.44,-4.36,-4.13,
0.973,34.27,-6.89,13.85,5.44,-4.36,-4.13,
0.974,34.27,-6.89,13.85,5.60,-4.26,-4.71,
0.975,34.18,-8.39,13.26,5.60,-4.26,-4.71,
0.976,34.18,-8.39,13.26,5.74,-4.05,-5.32,
0.977,34.18,-8.39,13.26,5.84,-3.74,-5.91,
0.978,33.69,-10.09,12.15,5.84,-3.74,-5.91,
0.979,33.00,-11.75,10.63,5.84,-3.74,-5.91,
0.979,33.00,-11.75,10.63,5.87,-3.39,-6.47,
0.98,33.00,-11.75,10.63,5.81,-3.03,-6.99,
0.981,32.33,-13.59,8.85,5.81,-3.03,-6.99,
0.981,32.33,-13.59,8.85,5.63,-2.68,-7.47,
0.982,31.90,-15.61,7.12,5.63,-2.68,-7.47,
0.983,31.90,-15.61,7.12,5.35,-2.33,-7.90,
0.983,31.62,-17.73,5.72,5.35,-2.33,-7.90,
0.984,31.62,-17.73,5.72,5.00,-1.98,-8.29,
0.985,31.46,-19.90,4.63,5.00,-1.98,-8.29,
0.985,31.46,-19.90,4.63,4.62,-1.65,-8.61,
0.986,31.35,-22.07,3.91,4.62,-1.65,-8.61,
0.986,31.35,-22.07,3.91,4.22,-1.34,-8.86,
0.987,31.17,-24.20,3.43,4.22,-1.34,-8.86,
0.99,31.17,-24.20,3.43,3.83,-1.04,-9.07,
0.991,31.07,-26.26,3.20,3.83,-1.04,-9.07,
0.993,31.07,-26.26,3.20,3.46,-0.77,-9.22,
0.994,31.06,-28.14,3.07,3.46,-0.77,-9.22,
0.998,31.06,-28.14,3.07,3.13,-0.53,-9.33,
0.999,31.17,-29.94,3.04,3.13,-0.53,-9.33,
1.003,31.17,-29.94,3.04,2.83,-0.34,-9.39,
1.004,31.53,-31.64,3.03,2.83,-0.34,-9.39,
1.008,31.53,-31.64,3.03,2.58,-0.22,-9.43,
1.009,32.17,-32.13,3.04,2.58,-0.22,-9.43,
1.013,31.90,-32.41,3.06,2.58,-0.22,-9.43,
1.014,31.90,-32.41,3.06,2.35,-0.16,-9.46,
1.017,31.56,-32.70,3.14,2.35,-0.16,-9.46,
1.018,31.56,-32.70,3.14,2.15,-0.13,-9.49,
1.022,31.22,-33.01,3.40,2.15,-0.13,-9.49,
1.023,31.22,-33.01,3.40,1.98,-0.14,-9.52,
1.029,30.90,-33.35,3.64,1.98,-0.14,-9.52,
1.03,30.90,-33.35,3.64,1.83,-0.16,-9.58,
1.032,30.60,-33.70,3.72,1.83,-0.16,-9.58,
1.032,30.60,-33.70,3.72,1.71,-0.14,-9.66,
1.037,30.60,-33.70,3.72,1.61,-0.10,-9.78,
1.038,30.31,-34.07,3.68,1.61,-0.10,-9.78,
1.049,30.03,-34.46,3.62,1.61,-0.10,-9.78,
1.05,30.03,-34.46,3.62,1.53,-0.02,-9.93,
1.051,29.77,-34.87,3.55,1.53,-0.02,-9.93,
1.052,29.77,-34.87,3.55,1.43,0.09,-10.09,
1.052,29.77,-34.87,3.55,1.33,0.27,-10.24,
1.052,29.53,-35.30,3.56,1.33,0.27,-10.24,
1.063,29.53,-35.30,3.56,1.25,0.51,-10.36,
1.064,29.30,-35.75,3.49,1.25,0.51,-10.36,
1.065,29.10,-36.21,3.37,1.25,0.51,-10.36,
1.066,29.10,-36.21,3.37,1.20,0.80,-10.46,
1.066,29.10,-36.21,3.37,1.15,1.06,-10.53,
1.066,28.92,-36.69,3.15,1.15,1.06,-10.53,
1.071,28.92,-36.69,3.15,1.12,1.27,-10.55,
1.072,27.82,-37.18,2.96,1.12,1.27,-10.55,
1.085,27.82,-37.18,2.96,1.10,1.41,-10.55,
1.086,26.05,-37.67,2.76,1.10,1.41,-10.55,
1.087,23.94,-38.16,2.61,1.10,1.41,-10.55,
1.087,23.94,-38.16,2.61,1.09,1.52,-10.50,
1.088,22.18,-38.66,2.53,1.09,1.52,-10.50,
1.088,22.18,-38.66,2.53,1.10,1.58,-10.39,
1.097,22.18,-38.66,2.53,1.13,1.62,-10.24,
1.098,21.03,-39.15,2.67,1.13,1.62,-10.24,
1.099,19.54,-39.63,3.06,1.13,1.62,-10.24,
1.099,19.54,-39.63,3.06,1.19,1.60,-10.12,
1.1,19.54,-39.63,3.06,1.27,1.47,-10.00,
1.101,17.78,-40.11,3.52,1.27,1.47,-10.00,
1.105,15.77,-40.58,4.09,1.27,1.47,-10.00,
1.106,15.77,-40.58,4.09,1.41,1.26,-9.87,
1.114,13.70,-40.79,4.91,1.41,1.26,-9.87,
1.115,13.70,-40.79,4.91,1.59,0.97,-9.70,
1.116,13.70,-40.79,4.91,1.84,0.64,-9.48,
1.116,11.60,-39.84,5.94,1.84,0.64,-9.48,
1.12,11.60,-39.84,5.94,2.15,0.28,-9.23,
1.121,9.93,-38.85,6.85,2.15,0.28,-9.23,
1.135,9.93,-38.85,6.85,2.51,-0.09,-8.95,
1.136,8.76,-37.96,7.50,2.51,-0.09,-8.95,
1.137,7.65,-36.94,7.81,2.51,-0.09,-8.95,
1.137,7.65,-36.94,7.81,2.89,-0.50,-8.70,
1.137,6.67,-35.85,7.74,2.89,-0.50,-8.70,
1.138,6.67,-35.85,7.74,3.26,-0.92,-8.47,
1.141,6.67,-35.85,7.74,3.60,-1.33,-8.26,
1.142,5.74,-34.76,7.55,3.60,-1.33,-8.26,
1.157,5.74,-34.76,7.55,3.90,-1.71,-8.06,
1.159,4.89,-33.59,7.23,3.90,-1.71,-8.06,
1.159,4.20,-32.46,6.82,3.90,-1.71,-8.06,
1.16,4.20,-32.46,6.82,4.14,-2.06,-7.88,
1.16,4.20,-32.46,6.82,4.31,-2.37,-7.70,
1.161,3.68,-31.43,6.44,4.31,-2.37,-7.70,
1.194,3.32,-30.41,6.03,4.31,-2.37,-7.70,
1.194,3.32,-30.41,6.03,4.42,-2.61,-7.53,
1.195,3.05,-29.54,5.60,4.42,-2.61,-7.53,
1.196,3.05,-29.54,5.60,4.46,-2.79,-7.37,
1.196,3.05,-29.54,5.60,4.43,-2.88,-7.23,
1.197,2.79,-28.66,5.02,4.43,-2.88,-7.23,
1.197,2.79,-28.66,5.02,4.33,-2.89,-7.09,
1.198,2.54,-27.74,4.47,4.33,-2.89,-7.09,
1.198,2.54,-27.74,4.47,4.17,-2.82,-6.96,
1.199,2.32,-26.88,4.00,4.17,-2.82,-6.96,
1.199,2.32,-26.88,4.00,3.96,-2.68,-6.83,
1.2,2.10,-26.09,3.55,3.96,-2.68,-6.83,
1.2,1.94,-25.37,3.11,3.96,-2.68,-6.83,
1.201,1.94,-25.37,3.11,3.71,-2.49,-6.71,
1.201,1.94,-25.37,3.11,3.42,-2.25,-6.58,
1.202,1.85,-24.80,2.73,3.42,-2.25,-6.58,
1.202,1.85,-24.80,2.73,3.10,-1.96,-6.44,
1.203,1.68,-24.28,2.43,3.10,-1.96,-6.44,
1.203,1.68,-24.28,2.43,2.77,-1.65,-6.30,
1.204,1.43,-23.85,2.29,2.77,-1.65,-6.30,
1.215,1.43,-23.85,2.29,2.44,-1.32,-6.16,
1.216,1.08,-23.44,2.26,2.44,-1.32,-6.16,
1.217,1.08,-23.44,2.26,2.12,-0.98,-6.01,
1.218,0.63,-23.07,2.37,2.12,-0.98,-6.01,
1.218,0.63,-23.07,2.37,1.82,-0.67,-5.86,
1.219,0.10,-22.72,2.63,1.82,-0.67,-5.86,
1.222,0.10,-22.72,2.63,1.56,-0.39,-5.70,
1.223,-0.41,-22.43,2.99,1.56,-0.39,-5.70,
1.235,-0.88,-22.13,3.32,1.56,-0.39,-5.70,
1.236,-0.88,-22.13,3.32,1.34,-0.18,-5.52,
1.236,-0.88,-22.13,3.32,1.18,-0.03,-5.33,
1.237,-1.15,-21.94,3.73,1.18,-0.03,-5.33,
1.237,-1.15,-21.94,3.73,1.06,0.06,-5.13,
1.238,-1.33,-21.80,4.26,1.06,0.06,-5.13,
1.244,-1.33,-21.80,4.26,0.99,0.10,-4.93,
1.245,-1.38,-21.70,4.81,0.99,0.10,-4.93,
1.247,-1.38,-21.48,5.32,0.99,0.10,-4.93,
1.248,-1.38,-21.48,5.32,0.96,0.10,-4.75,
1.251,-1.44,-21.29,5.73,0.96,0.10,-4.75,
1.252,-1.44,-21.29,5.73,0.98,0.08,-4.58,
1.256,-1.44,-21.29,5.73,1.04,0.02,-4.43,
1.257,-1.54,-21.02,6.14,1.04,0.02,-4.43,
1.261,-1.53,-20.86,6.54,1.04,0.02,-4.43,
1.262,-1.53,-20.86,6.54,1.11,-0.05,-4.29,
1.266,-1.48,-20.82,6.82,1.11,-0.05,-4.29,
1.267,-1.48,-20.82,6.82,1.21,-0.15,-4.17,
1.27,-1.40,-20.92,7.00,1.21,-0.15,-4.17,
1.271,-1.40,-20.92,7.00,1.33,-0.28,-4.05,
1.276,-1.47,-21.06,7.13,1.33,-0.28,-4.05,
1.277,-1.47,-21.06,7.13,1.45,-0.42,-3.94,
1.281,-1.47,-21.06,7.13,1.57,-0.53,-3.83,
1.281,-1.81,-21.07,7.25,1.57,-0.53,-3.83,
1.285,-2.13,-20.98,7.28,1.57,-0.53,-3.83,
1.286,-2.13,-20.98,7.28,1.69,-0.61,-3.72,
1.29,-2.57,-20.83,7.38,1.69,-0.61,-3.72,
1.291,-2.57,-20.83,7.38,1.81,-0.65,-3.60,
1.295,-3.03,-20.64,7.32,1.81,-0.65,-3.60,
1.296,-3.03,-20.64,7.32,1.91,-0.68,-3.49,
1.3,-3.53,-20.38,7.17,1.91,-0.68,-3.49,
1.301,-3.53,-20.38,7.17,2.01,-0.71,-3.36,
1.305,-4.02,-20.14,6.97,2.01,-0.71,-3.36,
1.306,-4.02,-20.14,6.97,2.08,-0.75,-3.23,
1.315,-4.02,-20.14,6.97,2.13,-0.77,-3.09,
1.315,-4.45,-19.99,6.62,2.13,-0.77,-3.09,
1.316,-4.86,-19.87,6.31,2.13,-0.77,-3.09,
1.317,-4.86,-19.87,6.31,2.17,-0.78,-2.95,
1.32,-4.86,-19.87,6.31,2.17,-0.78,-2.80,
1.32,-5.28,-19.75,5.86,2.17,-0.78,-2.80,
1.338,-5.28,-19.75,5.86,2.14,-0.75,-2.64,
1.338,-5.69,-19.64,5.29,2.14,-0.75,-2.64,
1.339,-6.06,-19.43,4.71,2.14,-0.75,-2.64,
1.34,-6.06,-19.43,4.71,2.06,-0.72,-2.46,
1.341,-6.24,-19.33,4.22,2.06,-0.72,-2.46,
1.342,-6.24,-19.33,4.22,1.93,-0.69,-2.27,
1.342,-6.34,-19.23,3.76,1.93,-0.69,-2.27,
1.343,-6.34,-19.23,3.76,1.75,-0.66,-2.07,
1.346,-6.29,-19.12,3.41,1.75,-0.66,-2.07,
1.347,-6.29,-19.12,3.41,1.53,-0.62,-1.86,
1.349,-6.23,-19.09,3.15,1.53,-0.62,-1.86,
1.35,-6.23,-19.09,3.15,1.28,-0.56,-1.67,
1.354,-6.23,-19.09,3.15,1.01,-0.47,-1.49,
1.354,-6.30,-19.07,3.03,1.01,-0.47,-1.49,
1.359,-6.40,-19.04,3.14,1.01,-0.47,-1.49,
1.36,-6.40,-19.04,3.14,0.73,-0.35,-1.32,
1.364,-6.40,-19.04,3.14,0.44,-0.22,-1.16,
1.365,-6.64,-19.06,3.42,0.44,-0.22,-1.16,
1.369,-6.64,-19.06,3.42,0.16,-0.08,-1.00,
1.369,-6.84,-19.16,3.72,0.16,-0.08,-1.00,
1.374,-6.84,-19.16,3.72,-0.09,0.05,-0.84,
1.374,-7.14,-19.31,4.08,-0.09,0.05,-0.84,
1.378,-7.47,-19.53,4.55,-0.09,0.05,-0.84,
1.38,-7.47,-19.53,4.55,-0.31,0.17,-0.65,
1.384,-7.78,-19.70,5.13,-0.31,0.17,-0.65,
1.385,-7.78,-19.70,5.13,-0.50,0.28,-0.45,
1.388,-8.08,-20.02,5.67,-0.50,0.28,-0.45,
1.389,-8.08,-20.02,5.67,-0.65,0.38,-0.25,
1.393,-8.47,-20.29,6.27,-0.65,0.38,-0.25,
1.395,-8.47,-20.29,6.27,-0.77,0.47,-0.02,
1.398,-8.47,-20.29,6.27,-0.85,0.53,0.23,
1.399,-8.77,-20.43,6.93,-0.85,0.53,0.23,
1.439,-8.90,-20.53,7.47,-0.85,0.53,0.23,
1.439,-8.90,-20.53,7.47,-0.88,0.58,0.48,
1.44,-8.90,-20.53,7.47,-0.88,0.60,0.72,
1.44,-8.91,-20.54,7.99,-0.88,0.60,0.72,
1.441,-8.81,-20.64,8.35,-0.88,0.60,0.72,
1.442,-8.81,-20.64,8.35,-0.84,0.58,0.96,
1.442,-8.64,-20.80,8.61,-0.84,0.58,0.96,
1.443,-8.64,-20.80,8.61,-0.77,0.55,1.19,
1.444,-8.56,-20.93,8.83,-0.77,0.55,1.19,
1.444,-8.56,-20.93,8.83,-0.68,0.50,1.42,
1.445,-8.56,-20.93,8.83,-0.58,0.44,1.65,
1.445,-8.43,-21.03,9.07,-0.58,0.44,1.65,
1.446,-8.43,-21.03,9.07,-0.47,0.39,1.88,
1.446,-8.32,-21.10,9.25,-0.47,0.39,1.88,
1.447,-8.32,-21.10,9.25,-0.35,0.34,2.12,
1.448,-8.17,-21.13,9.42,-0.35,0.34,2.12,
1.448,-8.17,-21.13,9.42,-0.23,0.29,2.35,
1.449,-7.96,-21.22,9.55,-0.23,0.29,2.35,
1.45,-7.96,-21.22,9.55,-0.10,0.26,2.59,
1.45,-7.59,-21.39,9.58,-0.10,0.26,2.59,
1.451,-7.59,-21.39,9.58,0.03,0.25,2.84,
1.452,-7.10,-21.60,9.42,0.03,0.25,2.84,
1.456,-7.10,-21.60,9.42,0.15,0.27,3.09,
1.457,-6.47,-21.87,9.13,0.15,0.27,3.09,
1.465,-6.47,-21.87,9.13,0.24,0.32,3.33,
1.465,-5.84,-22.19,8.64,0.24,0.32,3.33,
1.468,-5.84,-22.19,8.64,0.31,0.40,3.57,
1.472,-5.84,-22.19,8.64,0.33,0.51,3.81,
1.472,-5.08,-22.63,7.98,0.33,0.51,3.81,
1.473,-4.35,-23.14,7.35,0.33,0.51,3.81,
1.488,-3.68,-23.60,6.71,0.33,0.51,3.81,
1.489,-3.68,-23.60,6.71,0.30,0.65,4.05,
1.489,-2.96,-24.04,6.00,0.30,0.65,4.05,
1.49,-2.96,-24.04,6.00,0.23,0.81,4.30,
1.491,-2.23,-24.44,5.25,0.23,0.81,4.30,
1.492,-2.23,-24.44,5.25,0.10,0.99,4.54,
1.493,-1.42,-24.85,4.57,0.10,0.99,4.54,
1.493,-1.42,-24.85,4.57,-0.09,1.17,4.77,
1.496,-1.42,-24.85,4.57,-0.34,1.35,4.99,
1.497,-0.47,-25.29,4.01,-0.34,1.35,4.99,
1.5,0.41,-26.00,3.60,-0.34,1.35,4.99,
1.501,0.41,-26.00,3.60,-0.64,1.52,5.20,
1.505,1.16,-26.96,3.38,-0.64,1.52,5.20,
1.505,1.16,-26.96,3.38,-0.96,1.68,5.39,
1.51,1.71,-28.16,3.16,-0.96,1.68,5.39,
1.511,1.71,-28.16,3.16,-1.29,1.81,5.60,
1.515,2.07,-29.47,2.92,-1.29,1.81,5.60,
1.516,2.07,-29.47,2.92,-1.62,1.88,5.83,
1.52,2.48,-30.89,2.53,-1.62,1.88,5.83,
1.52,2.48,-30.89,2.53,-1.97,1.91,6.11,
1.531,3.05,-32.43,2.16,-1.97,1.91,6.11,
1.532,3.05,-32.43,2.16,-2.32,1.87,6.43,
1.532,3.05,-32.43,2.16,-2.68,1.76,6.81,
1.533,3.65,-34.08,2.08,-2.68,1.76,6.81,
1.534,3.65,-34.08,2.08,-3.04,1.59,7.23,
1.535,4.41,-35.64,2.43,-3.04,1.59,7.23,
1.539,5.61,-37.06,3.16,-3.04,1.59,7.23,
1.54,5.61,-37.06,3.16,-3.37,1.37,7.71,
1.55,5.61,-37.06,3.16,-3.65,1.11,8.25,
1.551,7.48,-38.43,4.20,-3.65,1.11,8.25,
1.551,7.48,-38.43,4.20,-3.87,0.82,8.80,
1.552,10.46,-39.82,5.56,-3.87,0.82,8.80,
1.554,10.46,-39.82,5.56,-4.01,0.52,9.32,
1.555,14.53,-41.04,7.12,-4.01,0.52,9.32,
1.565,14.53,-41.04,7.12,-4.03,0.25,9.76,
1.566,19.19,-41.99,8.92,-4.03,0.25,9.76,
1.567,19.19,-41.99,8.92,-3.94,0.05,10.09,
1.567,23.97,-42.43,10.80,-3.94,0.05,10.09,
1.568,23.97,-42.43,10.80,-3.73,-0.04,10.29,
1.569,28.25,-42.28,12.54,-3.73,-0.04,10.29,
1.573,28.25,-42.28,12.54,-3.41,-0.00,10.36,
1.574,31.68,-41.56,13.88,-3.41,-0.00,10.36,
1.588,31.68,-41.56,13.88,-3.03,0.15,10.33,
1.589,31.47,-40.41,14.63,-3.03,0.15,10.33,
1.589,31.47,-40.41,14.63,-2.60,0.37,10.25,
1.59,31.27,-39.32,14.51,-2.60,0.37,10.25,
1.59,31.10,-38.46,13.55,-2.60,0.37,10.25,
1.591,31.10,-38.46,13.55,-2.19,0.68,10.16,
1.609,31.10,-38.46,13.55,-1.83,1.05,10.08,
1.61,30.95,-37.87,11.62,-1.83,1.05,10.08,
1.61,30.81,-37.58,8.98,-1.83,1.05,10.08,
1.611,30.81,-37.58,8.98,-1.58,1.44,10.05,
1.612,30.69,-37.64,6.16,-1.58,1.44,10.05,
1.612,30.69,-37.64,6.16,-1.49,1.78,10.12,
1.613,30.59,-38.01,3.39,-1.49,1.78,10.12,
1.613,30.59,-38.01,3.39,-1.54,2.04,10.30,
1.614,30.52,-38.51,1.05,-1.54,2.04,10.30,
1.614,30.52,-38.51,1.05,-1.74,2.22,10.57,
1.617,30.52,-38.51,1.05,-2.05,2.30,10.90,
1.618,30.47,-38.81,-0.52,-2.05,2.30,10.90,
1.622,30.47,-38.81,-0.52,-2.44,2.28,11.26,
1.622,30.45,-38.30,-1.29,-2.44,2.28,11.26,
1.627,30.45,-38.30,-1.29,-2.85,2.17,11.61,
1.628,30.46,-37.77,-1.34,-2.85,2.17,11.61,
1.632,30.51,-37.24,-0.75,-2.85,2.17,11.61,
1.633,30.51,-37.24,-0.75,-3.24,2.01,11.95,
1.637,30.59,-36.70,0.26,-3.24,2.01,11.95,
1.637,30.59,-36.70,0.26,-3.58,1.81,12.26,
1.65,30.59,-36.70,0.26,-3.84,1.59,12.53,
1.651,30.71,-36.16,1.41,-3.84,1.59,12.53,
1.692,30.71,-36.16,1.41,-4.01,1.35,12.78,
1.693,30.87,-35.61,2.56,-4.01,1.35,12.78,
1.693,30.87,-35.61,2.56,-4.11,1.12,13.00,
1.694,31.07,-35.07,3.60,-4.11,1.12,13.00,
1.695,31.07,-35.07,3.60,-4.12,0.89,13.19,
1.695,31.31,-34.54,4.60,-4.12,0.89,13.19,
1.696,31.59,-34.02,5.59,-4.12,0.89,13.19,
1.697,31.59,-34.02,5.59,-4.06,0.71,13.33,
1.697,31.59,-34.02,5.59,-3.92,0.55,13.42,
1.698,31.90,-33.52,6.47,-3.92,0.55,13.42,
1.698,31.90,-33.52,6.47,-3.71,0.44,13.47,
1.699,32.24,-33.04,7.29,-3.71,0.44,13.47,
1.7,32.24,-33.04,7.29,-3.43,0.34,13.47,
1.7,32.62,-32.58,7.98,-3.43,0.34,13.47,
1.701,32.62,-32.58,7.98,-3.09,0.25,13.46,
1.701,33.03,-32.15,8.37,-3.09,0.25,13.46,
1.702,33.03,-32.15,8.37,-2.72,0.13,13.48,
1.702,33.46,-31.74,8.69,-2.72,0.13,13.48,
1.703,33.46,-31.74,8.69,-2.33,-0.02,13.47,
1.703,33.92,-31.36,8.54,-2.33,-0.02,13.47,
1.704,34.40,-31.01,7.90,-2.33,-0.02,13.47,
1.705,34.40,-31.01,7.90,-1.94,-0.19,13.35,
1.705,34.40,-31.01,7.90,-1.59,-0.34,13.10,
1.706,34.90,-30.70,7.07,-1.59,-0.34,13.10,
1.707,35.39,-30.42,6.19,-1.59,-0.34,13.10,
1.707,35.39,-30.42,6.19,-1.32,-0.47,12.75,
1.709,35.39,-30.42,6.19,-1.15,-0.59,12.34,
1.711,35.89,-29.32,5.30,-1.15,-0.59,12.34,
1.715,36.39,-25.87,4.55,-1.15,-0.59,12.34,
1.716,36.39,-25.87,4.55,-1.10,-0.69,11.92,
1.72,36.39,-25.87,4.55,-1.15,-0.73,11.48,
1.721,36.87,-22.39,4.06,-1.15,-0.73,11.48,
1.724,36.87,-22.39,4.06,-1.28,-0.68,11.02,
1.725,37.34,-18.82,3.91,-1.28,-0.68,11.02,
1.73,37.34,-18.82,3.91,-1.47,-0.55,10.54,
1.73,37.79,-15.26,4.18,-1.47,-0.55,10.54,
1.734,38.22,-11.73,4.73,-1.47,-0.55,10.54,
1.735,38.22,-11.73,4.73,-1.69,-0.32,10.06,
1.739,38.22,-11.73,4.73,-1.94,-0.02,9.57,
1.739,38.62,-8.28,5.20,-1.94,-0.02,9.57,
1.749,39.00,-4.83,5.65,-1.94,-0.02,9.57,
1.75,39.00,-4.83,5.65,-2.20,0.33,9.08,
1.75,39.34,-1.06,5.63,-2.20,0.33,9.08,
1.751,39.34,-1.06,5.63,-2.50,0.66,8.61,
1.754,39.34,-1.06,5.63,-2.85,0.89,8.16,
1.754,39.66,2.65,5.83,-2.85,0.89,8.16,
1.77,39.66,2.65,5.83,-3.27,1.06,7.72,
1.771,39.96,5.50,7.37,-3.27,1.06,7.72,
1.772,40.22,7.32,10.07,-3.27,1.06,7.72,
1.772,40.22,7.32,10.07,-3.63,1.29,7.20,
1.773,40.22,7.32,10.07,-3.82,1.65,6.51,
1.773,40.44,8.12,12.75,-3.82,1.65,6.51,
1.774,40.44,8.12,12.75,-3.85,2.07,5.63,
1.774,40.61,8.01,14.33,-3.85,2.07,5.63,
1.779,40.61,8.01,14.33,-3.77,2.51,4.66,
1.78,40.72,7.22,14.71,-3.77,2.51,4.66,
1.783,40.72,7.22,14.71,-3.62,2.98,3.71,
1.784,40.78,6.09,14.25,-3.62,2.98,3.71,
1.788,40.78,6.09,14.25,-3.46,3.46,2.85,
1.788,38.01,5.18,13.14,-3.46,3.46,2.85,
1.793,38.01,5.18,13.14,-3.30,3.89,2.14,
1.794,33.38,4.59,11.72,-3.30,3.89,2.14,
1.798,33.38,4.59,11.72,-3.18,4.20,1.60,
1.798,28.66,4.26,10.04,-3.18,4.20,1.60,
1.802,28.66,4.26,10.04,-3.13,4.36,1.25,
1.803,24.20,4.02,8.22,-3.13,4.36,1.25,
1.807,24.20,4.02,8.22,-3.14,4.37,1.07,
1.808,20.35,3.92,6.67,-3.14,4.37,1.07,
1.812,20.35,3.92,6.67,-3.20,4.23,1.02,
1.813,17.49,3.89,5.72,-3.20,4.23,1.02,
1.817,15.65,3.91,5.47,-3.20,4.23,1.02,
1.818,15.65,3.91,5.47,-3.29,3.99,1.07,
1.822,14.63,3.99,6.02,-3.29,3.99,1.07,
1.822,14.63,3.99,6.02,-3.37,3.68,1.17,
1.829,14.28,4.21,7.21,-3.37,3.68,1.17,
1.831,14.28,4.21,7.21,-3.40,3.32,1.27,
1.832,14.28,4.21,7.21,-3.36,2.91,1.37,
1.833,14.38,4.51,8.72,-3.36,2.91,1.37,
1.838,14.38,4.51,8.72,-3.21,2.48,1.42,
1.839,14.55,4.90,10.26,-3.21,2.48,1.42,
1.842,14.55,4.90,10.26,-2.96,2.04,1.43,
1.844,14.57,5.33,11.55,-2.96,2.04,1.43,
1.848,14.57,5.33,11.55,-2.62,1.59,1.41,
1.85,14.39,5.73,12.59,-2.62,1.59,1.41,
1.852,14.13,6.11,13.20,-2.62,1.59,1.41,
1.854,14.13,6.11,13.20,-2.23,1.15,1.38,
1.857,13.83,6.42,13.33,-2.23,1.15,1.38,
1.859,13.83,6.42,13.33,-1.81,0.71,1.34,
1.862,13.83,6.42,13.33,-1.40,0.29,1.31,
1.864,13.45,6.70,13.08,-1.40,0.29,1.31,
1.866,13.45,6.70,13.08,-1.03,-0.09,1.29,
1.867,13.03,7.05,12.52,-1.03,-0.09,1.29,
1.871,13.03,7.05,12.52,-0.73,-0.40,1.27,
1.872,12.51,7.47,11.82,-0.73,-0.40,1.27,
1.884,12.51,7.47,11.82,-0.52,-0.64,1.28,
1.885,12.04,7.92,11.06,-0.52,-0.64,1.28,
1.887,12.04,7.92,11.06,-0.39,-0.81,1.30,
1.887,11.68,8.45,10.39,-0.39,-0.81,1.30,
1.888,11.47,8.97,9.85,-0.39,-0.81,1.30,
1.888,11.47,8.97,9.85,-0.33,-0.90,1.35,
1.931,11.47,8.97,9.85,-0.34,-0.91,1.40,
1.932,11.34,9.49,9.50,-0.34,-0.91,1.40,
1.933,11.34,9.49,9.50,-0.40,-0.86,1.45,
1.933,11.41,10.03,9.36,-0.40,-0.86,1.45,
1.934,11.41,10.03,9.36,-0.49,-0.76,1.50,
1.935,11.57,10.55,9.41,-0.49,-0.76,1.50,
1.935,11.57,10.55,9.41,-0.59,-0.62,1.55,
1.936,11.84,11.03,9.60,-0.59,-0.62,1.55,
1.936,11.84,11.03,9.60,-0.69,-0.48,1.59,
1.937,12.06,11.63,9.89,-0.69,-0.48,1.59,
1.938,12.06,11.63,9.89,-0.79,-0.34,1.63,
1.938,12.19,12.15,10.33,-0.79,-0.34,1.63,
1.939,12.32,12.76,10.89,-0.79,-0.34,1.63,
1.939,12.32,12.76,10.89,-0.87,-0.24,1.67,
1.94,12.32,12.76,10.89,-0.94,-0.17,1.72,
1.941,12.71,13.28,11.70,-0.94,-0.17,1.72,
1.941,12.71,13.28,11.70,-0.98,-0.14,1.76,
1.942,13.56,13.63,12.79,-0.98,-0.14,1.76,
1.944,13.56,13.63,12.79,-0.97,-0.13,1.78,
1.944,14.80,13.84,14.04,-0.97,-0.13,1.78,
1.945,14.80,13.84,14.04,-0.88,-0.14,1.75,
1.945,16.36,13.94,15.39,-0.88,-0.14,1.75,
1.946,16.36,13.94,15.39,-0.71,-0.16,1.67,
1.947,17.86,13.99,16.71,-0.71,-0.16,1.67,
1.949,17.86,13.99,16.71,-0.46,-0.21,1.51,
1.949,18.96,14.04,17.96,-0.46,-0.21,1.51,
1.954,18.96,14.04,17.96,-0.13,-0.26,1.30,
1.955,19.52,14.17,19.06,-0.13,-0.26,1.30,
1.959,19.70,14.34,19.89,-0.13,-0.26,1.30,
1.96,19.70,14.34,19.89,0.27,-0.33,1.06,
1.968,19.70,14.34,19.89,0.71,-0.44,0.80,
1.968,19.65,14.52,20.43,0.71,-0.44,0.80,
1.969,19.65,14.52,20.43,1.20,-0.59,0.53,
1.969,19.55,14.65,20.58,1.20,-0.59,0.53,
1.986,19.55,14.65,20.58,1.71,-0.81,0.27,
1.987,19.45,14.59,20.37,1.71,-0.81,0.27,
1.988,19.45,14.59,20.37,2.21,-1.07,0.02,
1.988,19.22,14.35,19.79,2.21,-1.07,0.02,
1.989,19.03,14.07,19.00,2.21,-1.07,0.02,
1.989,19.03,14.07,19.00,2.68,-1.38,-0.20,
1.99,19.04,13.75,18.12,2.68,-1.38,-0.20,
1.99,19.04,13.75,18.12,3.12,-1.73,-0.40,
1.994,19.04,13.75,18.12,3.50,-2.09,-0.58,
1.995,19.45,13.47,17.29,3.50,-2.09,-0.58,
1.998,20.09,13.15,16.43,3.50,-2.09,-0.58,
1.999,20.09,13.15,16.43,3.84,-2.44,-0.77,
2.003,20.80,12.78,15.61,3.84,-2.44,-0.77,
2.003,20.80,12.78,15.61,4.13,-2.78,-0.99,
2.008,21.47,12.36,14.77,4.13,-2.78,-0.99,
2.008,21.47,12.36,14.77,4.37,-3.08,-1.25,
2.012,21.47,12.36,14.77,4.56,-3.34,-1.54,
2.013,22.01,11.76,13.99,4.56,-3.34,-1.54,
2.017,22.01,11.76,13.99,4.71,-3.57,-1.87,
2.018,22.42,10.95,13.29,4.71,-3.57,-1.87,
2.022,22.42,10.95,13.29,4.80,-3.76,-2.21,
2.023,22.72,9.98,12.71,4.80,-3.76,-2.21,
2.028,22.99,8.89,12.24,4.80,-3.76,-2.21,
2.029,22.99,8.89,12.24,4.85,-3.90,-2.56,
2.032,22.99,8.89,12.24,4.87,-4.00,-2.91,
2.033,23.11,7.73,11.89,4.87,-4.00,-2.91,
2.037,23.02,6.56,11.59,4.87,-4.00,-2.91,
2.038,23.02,6.56,11.59,4.85,-4.08,-3.25,
2.042,22.73,5.41,11.35,4.85,-4.08,-3.25,
2.043,22.73,5.41,11.35,4.81,-4.12,-3.58,
2.047,22.41,4.28,11.14,4.81,-4.12,-3.58,
2.048,22.41,4.28,11.14,4.74,-4.12,-3.90,
2.051,22.20,3.28,10.95,4.74,-4.12,-3.90,
2.052,22.20,3.28,10.95,4.66,-4.09,-4.20,
2.056,22.02,2.22,10.73,4.66,-4.09,-4.20,
2.057,22.02,2.22,10.73,4.57,-4.03,-4.47,
2.061,22.02,2.22,10.73,4.48,-3.96,-4.72,
2.065,21.84,1.09,10.43,4.48,-3.96,-4.72,
2.066,21.78,-0.04,10.14,4.48,-3.96,-4.72,
2.067,21.78,-0.04,10.14,4.38,-3.89,-4.93,
2.071,22.00,-1.17,9.97,4.38,-3.89,-4.93,
2.071,22.00,-1.17,9.97,4.27,-3.81,-5.10,
2.076,22.51,-2.34,9.88,4.27,-3.81,-5.10,
2.076,22.51,-2.34,9.88,4.16,-3.75,-5.26,
2.084,22.51,-2.34,9.88,4.05,-3.72,-5.41,
2.086,23.19,-3.54,9.86,4.05,-3.72,-5.41,
2.086,23.19,-3.54,9.86,3.96,-3.71,-5.54,
2.087,24.12,-4.79,9.77,3.96,-3.71,-5.54,
2.09,24.12,-4.79,9.77,3.88,-3.73,-5.69,
2.091,25.12,-6.06,9.59,3.88,-3.73,-5.69,
2.109,26.33,-7.41,9.52,3.88,-3.73,-5.69,
2.111,26.33,-7.41,9.52,3.80,-3.80,-5.84,
2.111,26.33,-7.41,9.52,3.71,-3.89,-5.98,
2.112,27.59,-8.85,9.38,3.71,-3.89,-5.98,
2.112,27.59,-8.85,9.38,3.62,-4.00,-6.13,
2.113,28.85,-10.37,9.14,3.62,-4.00,-6.13,
2.114,28.85,-10.37,9.14,3.50,-4.11,-6.27,
2.114,30.28,-11.95,8.62,3.50,-4.11,-6.27,
2.115,30.28,-11.95,8.62,3.32,-4.21,-6.41,
2.116,31.81,-13.59,7.68,3.32,-4.21,-6.41,
2.12,31.81,-13.59,7.68,3.08,-4.29,-6.57,
2.12,33.23,-15.31,6.97,3.08,-4.29,-6.57,
2.124,33.23,-15.31,6.97,2.74,-4.34,-6.75,
2.125,34.65,-16.84,6.54,2.74,-4.34,-6.75,
2.129,34.65,-16.84,6.54,2.33,-4.34,-6.96,
2.13,35.91,-18.26,6.44,2.33,-4.34,-6.96,
2.16,36.23,-19.48,6.89,2.33,-4.34,-6.96,
2.161,36.23,-19.48,6.89,1.87,-4.32,-7.20,
2.162,36.23,-19.48,6.89,1.39,-4.26,-7.47,
2.162,35.88,-20.62,7.68,1.39,-4.26,-7.47,
2.163,35.53,-22.02,8.61,1.39,-4.26,-7.47,
2.163,35.53,-22.02,8.61,0.91,-4.17,-7.78,
2.164,35.16,-24.04,9.93,0.91,-4.17,-7.78,
2.165,35.16,-24.04,9.93,0.45,-4.07,-8.15,
2.165,34.78,-26.53,11.35,0.45,-4.07,-8.15,
2.166,34.78,-26.53,11.35,0.03,-3.96,-8.60,
2.166,34.40,-29.26,12.98,0.03,-3.96,-8.60,
2.167,34.40,-29.26,12.98,-0.32,-3.81,-9.12,
2.167,34.00,-31.67,14.54,-0.32,-3.81,-9.12,
2.168,34.00,-31.67,14.54,-0.58,-3.59,-9.71,
2.169,34.00,-31.67,14.54,-0.73,-3.25,-10.32,
2.17,33.59,-31.90,16.03,-0.73,-3.25,-10.32,
2.178,33.59,-31.90,16.03,-0.78,-2.81,-10.91,
2.179,33.17,-32.17,16.85,-0.78,-2.81,-10.91,
2.18,33.17,-32.17,16.85,-0.73,-2.31,-11.42,
2.18,32.75,-32.48,16.93,-0.73,-2.31,-11.42,
2.199,32.75,-32.48,16.93,-0.60,-1.76,-11.86,
2.2,32.34,-32.83,16.28,-0.60,-1.76,-11.86,
2.2,31.93,-33.21,15.30,-0.60,-1.76,-11.86,
2.201,31.93,-33.21,15.30,-0.45,-1.21,-12.21,
2.202,31.93,-33.21,15.30,-0.32,-0.69,-12.42,
2.203,31.55,-33.62,14.18,-0.32,-0.69,-12.42,
2.203,31.55,-33.62,14.18,-0.19,-0.23,-12.47,
2.204,31.18,-34.06,13.15,-0.19,-0.23,-12.47,
2.204,31.18,-34.06,13.15,-0.05,0.17,-12.36,
2.205,27.72,-34.51,11.93,-0.05,0.17,-12.36,
2.213,24.32,-34.97,10.53,-0.05,0.17,-12.36,
2.214,24.32,-34.97,10.53,0.09,0.52,-12.10,
2.215,24.32,-34.97,10.53,0.20,0.77,-11.73,
2.215,21.83,-35.43,9.24,0.20,0.77,-11.73,
2.233,19.93,-35.88,8.23,0.20,0.77,-11.73,
2.234,19.93,-35.88,8.23,0.30,0.94,-11.28,
2.234,19.93,-35.88,8.23,0.39,1.08,-10.80,
2.235,18.28,-36.32,7.76,0.39,1.08,-10.80,
2.236,18.28,-36.32,7.76,0.47,1.18,-10.31,
2.236,17.36,-36.74,7.72,0.47,1.18,-10.31,
2.237,17.36,-36.74,7.72,0.59,1.21,-9.86,
2.237,17.21,-37.16,8.15,0.59,1.21,-9.86,
2.238,17.21,-37.16,8.15,0.77,1.16,-9.48,
2.238,17.60,-37.56,8.88,0.77,1.16,-9.48,
2.247,18.19,-37.95,9.59,0.77,1.16,-9.48,
2.248,18.19,-37.95,9.59,1.00,1.03,-9.20,
2.249,18.73,-38.33,10.24,1.00,1.03,-9.20,
2.249,18.73,-38.33,10.24,1.29,0.82,-9.01,
2.267,18.73,-38.33,10.24,1.63,0.56,-8.92,
2.268,18.96,-38.71,10.69,1.63,0.56,-8.92,
2.268,18.95,-38.98,10.83,1.63,0.56,-8.92,
2.269,18.95,-38.98,10.83,2.01,0.26,-8.90,
2.269,18.66,-38.31,10.70,2.01,0.26,-8.90,
2.27,18.66,-38.31,10.70,2.39,-0.08,-8.94,
2.27,18.03,-37.84,10.49,2.39,-0.08,-8.94,
2.271,18.03,-37.84,10.49,2.76,-0.46,-9.02,
2.272,18.03,-37.84,10.49,3.10,-0.85,-9.13,
2.272,16.98,-37.63,9.99,3.10,-0.85,-9.13,
2.281,16.98,-37.63,9.99,3.40,-1.22,-9.23,
2.282,15.52,-37.66,9.30,3.40,-1.22,-9.23,
2.283,15.52,-37.66,9.30,3.62,-1.56,-9.28,
2.284,13.90,-37.70,8.48,3.62,-1.56,-9.28,
2.294,13.90,-37.70,8.48,3.76,-1.84,-9.28,
2.295,11.95,-37.55,7.60,3.76,-1.84,-9.28,
2.296,9.89,-37.21,6.58,3.76,-1.84,-9.28,
2.297,9.89,-37.21,6.58,3.82,-2.04,-9.21,
2.297,9.89,-37.21,6.58,3.79,-2.20,-9.07,
2.298,7.85,-36.72,5.60,3.79,-2.20,-9.07,
2.306,6.15,-36.11,4.81,3.79,-2.20,-9.07,
2.307,6.15,-36.11,4.81,3.70,-2.31,-8.86,
2.308,4.88,-35.36,4.18,3.70,-2.31,-8.86,
2.308,4.88,-35.36,4.18,3.53,-2.39,-8.58,
2.31,4.88,-35.36,4.18,3.31,-2.42,-8.28,
2.31,4.16,-34.44,3.81,3.31,-2.42,-8.28,
2.337,3.86,-33.52,3.79,3.31,-2.42,-8.28,
2.338,3.86,-33.52,3.79,3.05,-2.41,-7.98,
2.339,3.86,-33.52,3.79,2.77,-2.35,-7.69,
2.34,3.98,-32.73,4.04,2.77,-2.35,-7.69,
2.34,3.98,-32.73,4.04,2.50,-2.23,-7.45,
2.341,4.09,-32.25,4.42,2.50,-2.23,-7.45,
2.341,4.09,-32.25,4.42,2.24,-2.05,-7.25,
2.342,3.78,-31.98,4.84,2.24,-2.05,-7.25,
2.342,3.78,-31.98,4.84,2.00,-1.81,-7.09,
2.343,2.97,-31.63,5.19,2.00,-1.81,-7.09,
2.343,1.56,-31.14,5.41,2.00,-1.81,-7.09,
2.344,1.56,-31.14,5.41,1.78,-1.56,-6.97,
2.346,-0.40,-30.55,5.58,1.78,-1.56,-6.97,
2.346,-0.40,-30.55,5.58,1.58,-1.32,-6.86,
2.361,-0.40,-30.55,5.58,1.41,-1.14,-6.74,
2.362,-2.37,-30.11,5.71,1.41,-1.14,-6.74,
2.363,-2.37,-30.11,5.71,1.29,-1.02,-6.57,
2.364,-4.00,-29.84,5.75,1.29,-1.02,-6.57,
2.364,-4.00,-29.84,5.75,1.21,-0.98,-6.36,
2.365,-5.37,-29.81,5.80,1.21,-0.98,-6.36,
2.365,-6.52,-29.81,5.75,1.21,-0.98,-6.36,
2.366,-6.52,-29.81,5.75,1.16,-1.02,-6.11,
2.369,-7.49,-29.62,5.77,1.16,-1.02,-6.11,
2.37,-7.49,-29.62,5.77,1.13,-1.09,-5.83,
2.374,-8.33,-29.16,5.94,1.13,-1.09,-5.83,
2.375,-8.33,-29.16,5.94,1.12,-1.23,-5.54,
2.406,-8.33,-29.16,5.94,1.14,-1.39,-5.23,
2.407,-8.95,-28.46,6.17,1.14,-1.39,-5.23,
2.408,-9.37,-27.70,6.33,1.14,-1.39,-5.23,
2.408,-9.37,-27.70,6.33,1.18,-1.56,-4.93,
2.409,-9.71,-27.08,6.40,1.18,-1.56,-4.93,
2.41,-9.71,-27.08,6.40,1.23,-1.70,-4.64,
2.41,-9.71,-27.08,6.40,1.28,-1.79,-4.37,
2.411,-9.87,-26.68,6.20,1.28,-1.79,-4.37,
2.411,-9.87,-26.68,6.20,1.31,-1.80,-4.14,
2.412,-10.20,-26.34,5.74,1.31,-1.80,-4.14,
2.413,-10.82,-25.98,5.10,1.31,-1.80,-4.14,
2.414,-10.82,-25.98,5.10,1.30,-1.75,-3.94,
2.414,-11.64,-25.62,4.22,1.30,-1.75,-3.94,
2.415,-11.64,-25.62,4.22,1.25,-1.64,-3.73,
2.415,-11.64,-25.62,4.22,1.14,-1.47,-3.53,
2.415,-12.71,-25.20,3.22,1.14,-1.47,-3.53,
2.425,-14.13,-24.97,2.14,1.14,-1.47,-3.53,
2.426,-14.13,-24.97,2.14,0.96,-1.22,-3.32,
2.426,-14.13,-24.97,2.14,0.70,-0.89,-3.08,
2.426,-15.93,-24.92,1.01,0.70,-0.89,-3.08,
2.427,-15.93,-24.92,1.01,0.37,-0.51,-2.81,
2.428,-17.96,-25.07,-0.10,0.37,-0.51,-2.81,
2.451,-20.16,-25.41,-1.21,0.37,-0.51,-2.81,
2.452,-20.16,-25.41,-1.21,-0.01,-0.12,-2.49,
2.453,-22.23,-25.99,-2.01,-0.01,-0.12,-2.49,
2.453,-22.23,-25.99,-2.01,-0.42,0.28,-2.11,
2.454,-22.23,-25.99,-2.01,-0.85,0.67,-1.67,
2.454,-23.86,-26.67,-2.57,-0.85,0.67,-1.67,
2.455,-25.14,-27.34,-2.85,-0.85,0.67,-1.67,
2.455,-25.14,-27.34,-2.85,-1.28,1.01,-1.17,
2.455,-25.14,-27.34,-2.85,-1.67,1.31,-0.62,
2.456,-26.33,-28.06,-3.10,-1.67,1.31,-0.62,
2.457,-27.39,-28.87,-3.14,-1.67,1.31,-0.62,
2.457,-27.39,-28.87,-3.14,-2.02,1.55,-0.01,
2.468,-28.48,-29.88,-3.15,-2.02,1.55,-0.01,
2.469,-28.48,-29.88,-3.15,-2.31,1.68,0.67,
2.469,-28.48,-29.88,-3.15,-2.55,1.65,1.42,
2.47,-29.50,-30.81,-3.14,-2.55,1.65,1.42,
2.471,-29.50,-30.81,-3.14,-2.74,1.43,2.25,
2.472,-29.76,-31.38,-3.07,-2.74,1.43,2.25,
2.476,-29.76,-31.38,-3.07,-2.90,1.05,3.14,
2.477,-28.53,-31.74,-2.74,-2.90,1.05,3.14,
2.49,-28.53,-31.74,-2.74,-3.02,0.57,4.01,
2.491,-25.77,-31.84,-2.11,-3.02,0.57,4.01,
2.492,-25.77,-31.84,-2.11,-3.10,0.04,4.81,
2.492,-22.04,-31.80,-1.25,-3.10,0.04,4.81,
2.493,-22.04,-31.80,-1.25,-3.13,-0.46,5.49,
2.493,-17.97,-31.67,-0.32,-3.13,-0.46,5.49,
2.496,-17.97,-31.67,-0.32,-3.13,-0.88,6.03,
2.497,-13.90,-31.54,0.74,-3.13,-0.88,6.03,
2.5,-9.98,-31.35,1.92,-3.13,-0.88,6.03,
2.501,-9.98,-31.35,1.92,-3.11,-1.20,6.44,
2.505,-6.04,-30.93,3.23,-3.11,-1.20,6.44,
2.506,-6.04,-30.93,3.23,-3.07,-1.41,6.73,
2.51,-6.04,-30.93,3.23,-2.99,-1.53,6.90,
2.511,-2.45,-30.17,4.73,-2.99,-1.53,6.90,
2.519,0.23,-29.36,6.29,-2.99,-1.53,6.90,
2.52,0.23,-29.36,6.29,-2.86,-1.55,6.95,
2.521,1.98,-28.60,7.70,-2.86,-1.55,6.95,
2.521,1.98,-28.60,7.70,-2.68,-1.48,6.92,
2.525,3.04,-28.20,8.64,-2.68,-1.48,6.92,
2.525,3.04,-28.20,8.64,-2.45,-1.35,6.86,
2.542,3.53,-28.09,9.01,-2.45,-1.35,6.86,
2.543,3.53,-28.09,9.01,-2.19,-1.20,6.81,
2.543,3.55,-28.06,8.96,-2.19,-1.20,6.81,
2.544,3.55,-28.06,8.96,-1.92,-1.03,6.82,
2.544,3.61,-28.03,8.73,-1.92,-1.03,6.82,
2.545,3.61,-28.03,8.73,-1.66,-0.84,6.89,
2.545,3.85,-27.95,8.31,-1.66,-0.84,6.89,
2.547,3.85,-27.95,8.31,-1.42,-0.64,7.01,
2.554,4.41,-27.88,7.91,-1.42,-0.64,7.01,
2.555,4.41,-27.88,7.91,-1.20,-0.45,7.17,
2.556,5.40,-27.79,7.34,-1.20,-0.45,7.17,
2.556,5.40,-27.79,7.34,-1.00,-0.26,7.37,
2.559,6.71,-27.70,6.70,-1.00,-0.26,7.37,
2.559,6.71,-27.70,6.70,-0.82,-0.08,7.57,
2.574,6.71,-27.70,6.70,-0.66,0.10,7.75,
2.575,8.27,-27.55,5.91,-0.66,0.10,7.75,
2.576,9.87,-27.35,5.19,-0.66,0.10,7.75,
2.576,9.87,-27.35,5.19,-0.52,0.26,7.90,
2.577,9.87,-27.35,5.19,-0.40,0.39,8.00,
2.577,11.29,-27.19,4.48,-0.40,0.39,8.00,
2.586,11.29,-27.19,4.48,-0.30,0.50,8.07,
2.587,12.49,-27.02,3.88,-0.30,0.50,8.07,
2.588,13.66,-26.91,3.44,-0.30,0.50,8.07,
2.589,13.66,-26.91,3.44,-0.21,0.59,8.11,
2.589,13.66,-26.91,3.44,-0.13,0.67,8.15,
2.589,14.64,-26.76,3.00,-0.13,0.67,8.15,
2.593,14.64,-26.76,3.00,-0.05,0.74,8.17,
2.594,15.51,-26.73,2.51,-0.05,0.74,8.17,
2.608,15.51,-26.73,2.51,0.02,0.78,8.21,
2.609,16.27,-26.82,1.87,0.02,0.78,8.21,
2.61,16.27,-26.82,1.87,0.07,0.82,8.26,
2.61,16.85,-26.95,1.10,0.07,0.82,8.26,
2.611,17.42,-27.00,0.11,0.07,0.82,8.26,
2.612,17.42,-27.00,0.11,0.09,0.86,8.33,
2.613,17.42,-27.00,0.11,0.06,0.91,8.42,
2.614,17.93,-27.04,-0.77,0.06,0.91,8.42,
2.617,17.93,-27.04,-0.77,-0.02,0.99,8.53,
2.618,18.52,-27.08,-1.60,-0.02,0.99,8.53,
2.652,18.52,-27.08,-1.60,-0.16,1.07,8.65,
2.652,19.18,-27.16,-2.33,-0.16,1.07,8.65,
2.653,19.18,-27.16,-2.33,-0.35,1.18,8.78,
2.653,19.94,-27.25,-3.01,-0.35,1.18,8.78,
2.654,19.94,-27.25,-3.01,-0.59,1.28,8.92,
2.654,20.70,-27.29,-3.49,-0.59,1.28,8.92,
2.655,20.70,-27.29,-3.49,-0.88,1.39,9.04,
2.655,21.32,-27.30,-3.75,-0.88,1.39,9.04,
2.658,21.32,-27.30,-3.75,-1.22,1.50,9.15,
2.658,21.91,-27.16,-3.83,-1.22,1.50,9.15,
2.659,21.91,-27.16,-3.83,-1.59,1.62,9.25,
2.659,22.35,-26.92,-3.69,-1.59,1.62,9.25,
2.659,22.35,-26.92,-3.69,-1.99,1.74,9.33,
2.66,22.68,-26.69,-3.35,-1.99,1.74,9.33,
2.66,22.95,-26.42,-2.69,-1.99,1.74,9.33,
2.661,22.95,-26.42,-2.69,-2.40,1.83,9.39,
2.662,22.95,-26.42,-2.69,-2.81,1.91,9.43,
2.662,23.19,-25.98,-1.72,-2.81,1.91,9.43,
2.669,23.36,-25.49,-0.52,-2.81,1.91,9.43,
2.67,23.36,-25.49,-0.52,-3.18,1.97,9.44,
2.672,23.36,-25.49,-0.52,-3.51,2.00,9.41,
2.672,23.48,-24.95,0.75,-3.51,2.00,9.41,
2.675,23.48,-24.95,0.75,-3.79,2.00,9.36,
2.676,23.56,-24.41,2.08,-3.79,2.00,9.36,
2.696,23.56,-24.41,2.08,-4.00,1.95,9.28,
2.696,23.60,-23.83,3.27,-4.00,1.95,9.28,
2.697,23.60,-23.83,3.27,-4.15,1.88,9.16,
2.698,23.69,-23.30,4.46,-4.15,1.88,9.16,
2.698,23.69,-23.30,4.46,-4.23,1.78,9.02,
2.699,23.81,-22.64,5.61,-4.23,1.78,9.02,
2.699,23.81,-22.64,5.61,-4.25,1.64,8.86,
2.7,24.04,-22.04,6.64,-4.25,1.64,8.86,
2.7,24.04,-22.04,6.64,-4.20,1.48,8.68,
2.701,24.39,-21.34,7.62,-4.20,1.48,8.68,
2.705,24.39,-21.34,7.62,-4.10,1.30,8.47,
2.706,24.79,-20.49,8.55,-4.10,1.30,8.47,
2.71,24.79,-20.49,8.55,-3.93,1.12,8.24,
2.71,25.24,-19.55,9.44,-3.93,1.12,8.24,
2.715,25.24,-19.55,9.44,-3.72,0.96,7.99,
2.716,25.51,-18.49,10.28,-3.72,0.96,7.99,
2.72,25.51,-18.49,10.28,-3.48,0.86,7.74,
2.72,24.29,-17.27,10.70,-3.48,0.86,7.74,
2.725,24.29,-17.27,10.70,-3.24,0.82,7.55,
2.725,24.25,-16.54,11.13,-3.24,0.82,7.55,
2.735,24.25,-16.54,11.13,-2.98,0.91,7.36,
2.736,24.66,-16.01,11.61,-2.98,0.91,7.36,
2.737,25.01,-15.32,12.03,-2.98,0.91,7.36,
2.738,25.01,-15.32,12.03,-2.70,1.03,7.09,
2.739,24.60,-14.57,12.36,-2.70,1.03,7.09,
2.74,24.60,-14.57,12.36,-2.39,1.07,6.81,
2.744,24.60,-14.57,12.36,-2.07,1.09,6.57,
2.745,23.51,-13.69,12.39,-2.07,1.09,6.57,
2.76,23.51,-13.69,12.39,-1.75,1.12,6.39,
2.762,22.34,-12.84,12.02,-1.75,1.12,6.39,
2.763,22.34,-12.84,12.02,-1.45,1.17,6.27,
2.764,21.62,-12.06,11.23,-1.45,1.17,6.27,
2.765,21.46,-11.32,10.26,-1.45,1.17,6.27,
2.766,21.46,-11.32,10.26,-1.18,1.23,6.19,
2.766,21.46,-11.32,10.26,-0.95,1.26,6.13,
2.767,21.63,-10.50,9.21,-0.95,1.26,6.13,
2.769,21.96,-9.54,8.11,-0.95,1.26,6.13,
2.77,21.96,-9.54,8.11,-0.78,1.26,6.07,
2.773,22.36,-8.83,7.03,-0.78,1.26,6.07,
2.774,22.36,-8.83,7.03,-0.67,1.26,5.98,
2.778,22.69,-8.01,5.76,-0.67,1.26,5.98,
2.779,22.69,-8.01,5.76,-0.63,1.24,5.86,
2.783,22.53,-6.50,5.13,-0.63,1.24,5.86,
2.785,22.53,-6.50,5.13,-0.65,1.24,5.72,
2.788,22.53,-6.50,5.13,-0.71,1.24,5.55,
2.789,22.28,-5.04,4.63,-0.71,1.24,5.55,
2.793,22.28,-5.04,4.63,-0.79,1.26,5.38,
2.794,22.23,-3.64,4.13,-0.79,1.26,5.38,
2.798,22.23,-3.64,4.13,-0.90,1.26,5.19,
2.799,22.05,-2.47,3.48,-0.90,1.26,5.19,
2.803,22.05,-2.47,3.48,-1.03,1.24,5.00,
2.804,21.73,-1.49,2.89,-1.03,1.24,5.00,
2.808,21.45,-0.55,2.52,-1.03,1.24,5.00,
2.808,21.45,-0.55,2.52,-1.18,1.21,4.79,
2.813,21.12,0.33,2.26,-1.18,1.21,4.79,
2.814,21.12,0.33,2.26,-1.37,1.15,4.58,
2.817,20.70,1.17,2.17,-1.37,1.15,4.58,
2.818,20.70,1.17,2.17,-1.59,1.06,4.36,
2.822,20.70,1.17,2.17,-1.82,0.97,4.13,
2.823,20.23,1.99,2.35,-1.82,0.97,4.13,
2.827,20.23,1.99,2.35,-2.07,0.88,3.92,
2.828,19.75,2.69,2.77,-2.07,0.88,3.92,
2.832,19.21,3.24,3.44,-2.07,0.88,3.92,
2.833,19.21,3.24,3.44,-2.31,0.80,3.71,
2.837,19.21,3.24,3.44,-2.54,0.73,3.51,
2.838,18.73,3.67,4.28,-2.54,0.73,3.51,
2.842,18.73,3.67,4.28,-2.74,0.67,3.33,
2.843,18.35,3.97,5.31,-2.74,0.67,3.33,
2.858,18.06,4.10,6.43,-2.74,0.67,3.33,
2.859,18.06,4.10,6.43,-2.91,0.62,3.16,
2.86,17.78,4.15,7.64,-2.91,0.62,3.16,
2.861,17.78,4.15,7.64,-3.02,0.58,2.99,
2.861,17.78,4.15,7.64,-3.08,0.58,2.84,
2.862,17.51,4.10,8.83,-3.08,0.58,2.84,
2.863,17.51,4.10,8.83,-3.06,0.62,2.69,
2.864,16.90,3.86,11.01,-3.06,0.62,2.69,
2.912,16.90,3.86,11.01,-2.94,0.73,2.57,
2.912,16.30,3.97,12.77,-2.94,0.73,2.57,
2.913,16.22,4.17,12.96,-2.94,0.73,2.57,
2.914,16.22,4.17,12.96,-2.72,0.85,2.49,
2.914,16.22,4.17,12.96,-2.47,0.96,2.41,
2.915,16.27,4.39,12.52,-2.47,0.96,2.41,
2.915,15.90,4.66,12.18,-2.47,0.96,2.41,
2.916,15.90,4.66,12.18,-2.22,1.08,2.34,
2.917,15.90,4.66,12.18,-1.98,1.19,2.28,
2.917,15.23,4.91,12.09,-1.98,1.19,2.28,
2.918,15.23,4.91,12.09,-1.73,1.29,2.23,
2.918,14.93,5.29,11.82,-1.73,1.29,2.23,
2.919,14.93,5.29,11.82,-1.50,1.32,2.19,
2.92,15.03,5.80,11.25,-1.50,1.32,2.19,
2.92,15.03,5.80,11.25,-1.28,1.31,2.16,
2.921,15.25,6.40,10.48,-1.28,1.31,2.16,
2.921,15.31,7.02,9.77,-1.28,1.31,2.16,
2.922,15.31,7.02,9.77,-1.10,1.24,2.12,
2.922,15.31,7.02,9.77,-0.94,1.16,2.07,
2.922,15.33,7.75,9.15,-0.94,1.16,2.07,
2.923,15.42,8.40,8.67,-0.94,1.16,2.07,
2.924,15.42,8.40,8.67,-0.81,1.06,2.02,
2.924,15.65,8.95,8.32,-0.81,1.06,2.02,
2.924,15.65,8.95,8.32,-0.70,0.93,1.96,
2.925,16.11,9.32,8.12,-0.70,0.93,1.96,
2.925,16.11,9.32,8.12,-0.60,0.77,1.89,
2.931,16.40,9.71,8.05,-0.60,0.77,1.89,
2.932,16.40,9.71,8.05,-0.52,0.61,1.79,
2.934,16.70,10.11,8.02,-0.52,0.61,1.79,
2.935,16.70,10.11,8.02,-0.44,0.46,1.69,
2.939,16.70,10.11,8.02,-0.36,0.35,1.56,
2.94,17.33,10.12,7.93,-0.36,0.35,1.56,
2.944,17.89,10.38,7.67,-0.36,0.35,1.56,
2.945,17.89,10.38,7.67,-0.28,0.30,1.43,
2.949,18.09,10.95,7.37,-0.28,0.30,1.43,
2.95,18.09,10.95,7.37,-0.20,0.29,1.29,
2.954,17.97,11.55,7.01,-0.20,0.29,1.29,
2.955,17.97,11.55,7.01,-0.15,0.29,1.14,
2.959,17.80,12.00,6.64,-0.15,0.29,1.14,
2.96,17.80,12.00,6.64,-0.14,0.29,1.00,
2.974,17.79,12.17,6.48,-0.14,0.29,1.00,
2.976,17.79,12.17,6.48,-0.16,0.29,0.86,
2.976,17.79,12.17,6.48,-0.20,0.30,0.72,
2.977,18.00,12.18,6.45,-0.20,0.30,0.72,
2.978,18.00,12.18,6.45,-0.25,0.31,0.59,
2.979,18.29,12.10,6.60,-0.25,0.31,0.59,
2.98,18.29,12.10,6.60,-0.28,0.32,0.47,
2.98,18.63,12.03,6.82,-0.28,0.32,0.47,
3.009,18.63,12.03,6.82,-0.30,0.34,0.36,
3.01,18.91,12.07,7.10,-0.30,0.34,0.36,
3.01,18.91,12.07,7.10,-0.31,0.34,0.25,
3.011,19.24,12.24,7.38,-0.31,0.34,0.25,
3.012,19.60,12.35,7.66,-0.31,0.34,0.25,
3.013,19.60,12.35,7.66,-0.31,0.34,0.16,
3.014,19.60,12.35,7.66,-0.30,0.33,0.07,
3.014,19.92,12.39,7.89,-0.30,0.33,0.07,
3.015,20.34,12.25,8.07,-0.30,0.33,0.07,
3.016,20.34,12.25,8.07,-0.29,0.33,-0.02,
3.016,20.89,11.91,8.25,-0.29,0.33,-0.02,
3.017,20.89,11.91,8.25,-0.26,0.32,-0.12,
3.018,20.89,11.91,8.25,-0.24,0.31,-0.25,
3.018,21.53,11.45,8.60,-0.24,0.31,-0.25,
3.019,22.25,10.91,9.00,-0.24,0.31,-0.25,
3.02,22.25,10.91,9.00,-0.20,0.29,-0.42,
3.022,22.91,10.31,9.53,-0.20,0.29,-0.42,
3.024,22.91,10.31,9.53,-0.14,0.29,-0.64,
3.027,23.51,9.65,9.99,-0.14,0.29,-0.64,
3.028,23.51,9.65,9.99,-0.05,0.32,-0.92,
3.032,23.86,8.99,10.38,-0.05,0.32,-0.92,
3.034,23.86,8.99,10.38,0.06,0.37,-1.25,
3.037,23.84,8.32,10.86,0.06,0.37,-1.25,
3.038,23.84,8.32,10.86,0.20,0.43,-1.63,
3.042,23.84,8.32,10.86,0.36,0.49,-2.03,
3.042,23.41,7.60,11.42,0.36,0.49,-2.03,
3.046,22.62,6.87,11.90,0.36,0.49,-2.03,
3.048,22.62,6.87,11.90,0.56,0.56,-2.43,
3.052,21.69,6.10,12.18,0.56,0.56,-2.43,
3.053,21.69,6.10,12.18,0.80,0.62,-2.82,
3.057,21.69,6.10,12.18,1.06,0.70,-3.18,
3.057,20.83,5.23,12.16,1.06,0.70,-3.18,
3.061,20.83,5.23,12.16,1.35,0.75,-3.52,
3.062,20.02,4.27,11.95,1.35,0.75,-3.52,
3.076,19.16,3.25,11.59,1.35,0.75,-3.52,
3.078,19.16,3.25,11.59,1.64,0.78,-3.82,
3.078,18.26,2.17,11.02,1.64,0.78,-3.82,
3.079,18.26,2.17,11.02,1.93,0.79,-4.10,
3.08,17.39,1.13,10.27,1.93,0.79,-4.10,
3.082,17.39,1.13,10.27,2.19,0.79,-4.34,
3.082,16.59,0.14,9.45,2.19,0.79,-4.34,
3.083,16.59,0.14,9.45,2.42,0.77,-4.54,
3.106,16.59,0.14,9.45,2.62,0.73,-4.70,
3.108,15.89,-0.74,8.66,2.62,0.73,-4.70,
3.108,15.89,-0.74,8.66,2.78,0.67,-4.81,
3.109,15.32,-1.61,7.89,2.78,0.67,-4.81,
3.11,14.82,-2.37,7.23,2.78,0.67,-4.81,
3.11,14.82,-2.37,7.23,2.90,0.61,-4.90,
3.111,14.82,-2.37,7.23,2.99,0.53,-4.95,
3.112,14.47,-3.11,6.64,2.99,0.53,-4.95,
3.112,14.21,-3.77,6.11,2.99,0.53,-4.95,
3.113,14.21,-3.77,6.11,3.05,0.43,-4.98,
3.149,14.16,-4.41,5.74,3.05,0.43,-4.98,
3.15,14.16,-4.41,5.74,3.08,0.34,-4.99,
3.151,14.31,-5.06,5.50,3.08,0.34,-4.99,
3.151,14.31,-5.06,5.50,3.10,0.25,-4.99,
3.152,14.31,-5.06,5.50,3.11,0.14,-4.99,
3.152,14.53,-5.79,5.40,3.11,0.14,-4.99,
3.153,14.90,-6.45,5.32,3.11,0.14,-4.99,
3.154,14.90,-6.45,5.32,3.12,0.03,-5.00,
3.154,14.90,-6.45,5.32,3.13,-0.10,-5.01,
3.155,15.28,-7.12,5.25,3.13,-0.10,-5.01,
3.156,15.28,-7.12,5.25,3.15,-0.23,-5.04,
3.156,15.72,-7.83,5.21,3.15,-0.23,-5.04,
3.157,15.72,-7.83,5.21,3.18,-0.38,-5.08,
3.158,16.28,-8.60,5.20,3.18,-0.38,-5.08,
3.158,16.28,-8.60,5.20,3.21,-0.56,-5.15,
3.159,17.04,-9.50,5.29,3.21,-0.56,-5.15,
3.159,17.92,-10.53,5.43,3.21,-0.56,-5.15,
3.16,17.92,-10.53,5.43,3.26,-0.76,-5.23,
3.16,18.85,-11.63,5.69,3.26,-0.76,-5.23,
3.161,18.85,-11.63,5.69,3.32,-1.00,-5.34,
3.162,19.85,-12.77,5.76,3.32,-1.00,-5.34,
3.162,19.85,-12.77,5.76,3.40,-1.25,-5.47,
3.163,19.85,-12.77,5.76,3.49,-1.49,-5.62,
3.164,20.68,-13.86,5.88,3.49,-1.49,-5.62,
3.172,20.68,-13.86,5.88,3.59,-1.74,-5.79,
3.173,21.31,-14.81,6.02,3.59,-1.74,-5.79,
3.174,22.05,-15.84,6.20,3.59,-1.74,-5.79,
3.175,22.05,-15.84,6.20,3.69,-2.00,-5.96,
3.178,22.05,-15.84,6.20,3.80,-2.25,-6.15,
3.179,22.86,-16.95,6.51,3.80,-2.25,-6.15,
3.186,23.50,-18.03,6.57,3.80,-2.25,-6.15,
3.188,23.50,-18.03,6.57,3.91,-2.50,-6.38,
3.189,23.50,-18.03,6.57,4.02,-2.77,-6.63,
3.189,23.96,-19.12,6.44,4.02,-2.77,-6.63,
3.193,24.30,-20.20,6.11,4.02,-2.77,-6.63,
3.194,24.30,-20.20,6.11,4.10,-3.03,-6.89,
3.209,24.30,-20.20,6.11,4.13,-3.26,-7.14,
3.21,24.51,-21.16,5.73,4.13,-3.26,-7.14,
3.211,24.51,-21.16,5.73,4.12,-3.46,-7.39,
3.212,24.46,-21.80,5.33,4.12,-3.46,-7.39,
3.212,24.46,-21.80,5.33,4.04,-3.60,-7.63,
3.213,24.33,-22.51,4.85,4.04,-3.60,-7.63,
3.213,24.43,-23.44,4.37,4.04,-3.60,-7.63,
3.214,24.43,-23.44,4.37,3.91,-3.67,-7.88,
3.219,24.74,-24.54,4.05,3.91,-3.67,-7.88,
3.22,24.74,-24.54,4.05,3.73,-3.67,-8.13,
3.222,24.74,-24.54,4.05,3.53,-3.59,-8.36,
3.223,24.96,-25.54,3.75,3.53,-3.59,-8.36,
3.227,24.96,-25.54,3.75,3.31,-3.46,-8.59,
3.228,24.88,-26.47,3.60,3.31,-3.46,-8.59,
3.232,24.69,-27.20,3.56,3.31,-3.46,-8.59,
3.233,24.69,-27.20,3.56,3.07,-3.28,-8.80,
3.237,24.41,-27.79,3.47,3.07,-3.28,-8.80,
3.237,24.41,-27.79,3.47,2.84,-3.06,-8.99,
3.242,24.41,-27.79,3.47,2.61,-2.80,-9.16,
3.242,24.10,-28.25,3.43,2.61,-2.80,-9.16,
3.248,23.53,-28.70,3.37,2.61,-2.80,-9.16,
3.249,23.53,-28.70,3.37,2.39,-2.47,-9.34,
3.251,22.59,-29.17,3.33,2.39,-2.47,-9.34,
3.252,22.59,-29.17,3.33,2.18,-2.10,-9.51,
3.256,21.29,-29.54,3.22,2.18,-2.10,-9.51,
3.257,21.29,-29.54,3.22,2.00,-1.70,-9.65,
3.261,19.84,-29.88,3.13,2.00,-1.70,-9.65,
3.262,19.84,-29.88,3.13,1.83,-1.30,-9.74,
3.268,19.84,-29.88,3.13,1.67,-0.92,-9.79,
3.269,18.44,-30.14,2.91,1.67,-0.92,-9.79,
3.271,18.44,-30.14,2.91,1.54,-0.56,-9.78,
3.272,17.09,-30.43,2.59,1.54,-0.56,-9.78,
3.276,17.09,-30.43,2.59,1.41,-0.19,-9.71,
3.276,15.74,-30.54,2.27,1.41,-0.19,-9.71,
3.28,15.74,-30.54,2.27,1.29,0.18,-9.61,
3.281,14.27,-30.47,2.00,1.29,0.18,-9.61,
3.291,12.53,-30.21,1.84,1.29,0.18,-9.61,
3.293,12.53,-30.21,1.84,1.19,0.55,-9.46,
3.293,12.53,-30.21,1.84,1.11,0.89,-9.28,
3.294,10.60,-29.77,1.65,1.11,0.89,-9.28,
3.295,10.60,-29.77,1.65,1.04,1.18,-9.05,
3.296,8.76,-29.17,1.34,1.04,1.18,-9.05,
3.324,8.76,-29.17,1.34,0.98,1.39,-8.76,
3.325,7.27,-28.49,0.99,0.98,1.39,-8.76,
3.326,7.27,-28.49,0.99,0.91,1.53,-8.44,
3.326,6.35,-27.96,0.67,0.91,1.53,-8.44,
3.327,6.35,-27.96,0.67,0.86,1.61,-8.11,
3.328,5.67,-27.63,0.36,0.86,1.61,-8.11,
3.328,5.03,-27.38,0.13,0.86,1.61,-8.11,
3.329,5.03,-27.38,0.13,0.82,1.65,-7.79,
3.33,5.03,-27.38,0.13,0.78,1.65,-7.47,
3.331,4.30,-27.07,0.06,0.78,1.65,-7.47,
3.332,3.52,-26.66,0.12,0.78,1.65,-7.47,
3.333,3.52,-26.66,0.12,0.76,1.62,-7.15,
3.333,3.52,-26.66,0.12,0.75,1.55,-6.83,
3.334,2.88,-26.19,0.33,0.75,1.55,-6.83,
3.335,2.88,-26.19,0.33,0.76,1.43,-6.50,
3.335,2.46,-25.73,0.70,0.76,1.43,-6.50,
3.352,2.32,-25.46,1.20,0.76,1.43,-6.50,
3.354,2.32,-25.46,1.20,0.81,1.26,-6.18,
3.355,2.43,-25.39,1.75,0.81,1.26,-6.18,
3.355,2.43,-25.39,1.75,0.90,1.05,-5.89,
3.356,2.45,-25.27,2.40,0.90,1.05,-5.89,
3.357,2.45,-25.27,2.40,1.05,0.81,-5.63,
3.401,2.25,-24.99,3.08,1.05,0.81,-5.63,
3.402,2.25,-24.99,3.08,1.23,0.54,-5.43,
3.402,2.25,-24.99,3.08,1.46,0.23,-5.27,
3.403,1.79,-24.55,3.62,1.46,0.23,-5.27,
3.404,1.25,-24.06,4.10,1.46,0.23,-5.27,
3.405,1.25,-24.06,4.10,1.73,-0.12,-5.13,
3.405,0.76,-23.64,4.46,1.73,-0.12,-5.13,
3.406,0.76,-23.64,4.46,2.02,-0.49,-5.01,
3.406,0.76,-23.64,4.46,2.33,-0.88,-4.92,
3.407,0.22,-23.21,4.76,2.33,-0.88,-4.92,
3.407,-0.31,-22.86,4.87,2.33,-0.88,-4.92,
3.408,-0.31,-22.86,4.87,2.64,-1.27,-4.83,
3.409,-0.31,-22.86,4.87,2.94,-1.66,-4.76,
3.41,-0.96,-22.63,4.77,2.94,-1.66,-4.76,
3.41,-0.96,-22.63,4.77,3.22,-2.02,-4.68,
3.411,-1.69,-22.36,4.51,3.22,-2.02,-4.68,
3.411,-1.69,-22.36,4.51,3.45,-2.36,-4.59,
3.412,-2.46,-22.15,4.23,3.45,-2.36,-4.59,
3.412,-2.46,-22.15,4.23,3.62,-2.65,-4.48,
3.413,-3.14,-22.04,3.86,3.62,-2.65,-4.48,
3.413,-3.69,-21.89,3.43,3.62,-2.65,-4.48,
3.415,-3.69,-21.89,3.43,3.74,-2.88,-4.35,
3.416,-3.69,-21.89,3.43,3.79,-3.07,-4.21,
3.416,-4.16,-21.62,3.02,3.79,-3.07,-4.21,
3.417,-4.16,-21.62,3.02,3.78,-3.21,-4.07,
3.418,-4.62,-21.26,2.70,3.78,-3.21,-4.07,
3.419,-4.62,-21.26,2.70,3.71,-3.30,-3.93,
3.42,-5.18,-20.82,2.31,3.71,-3.30,-3.93,
3.422,-5.18,-20.82,2.31,3.58,-3.33,-3.80,
3.423,-5.63,-20.46,1.87,3.58,-3.33,-3.80,
3.427,-5.63,-20.46,1.87,3.39,-3.31,-3.66,
3.427,-5.96,-20.10,1.43,3.39,-3.31,-3.66,
3.438,-5.96,-20.10,1.43,3.14,-3.23,-3.52,
3.439,-6.22,-19.83,1.02,3.14,-3.23,-3.52,
3.439,-6.46,-19.60,0.70,3.14,-3.23,-3.52,
3.44,-6.46,-19.60,0.70,2.84,-3.09,-3.38,
3.441,-6.70,-19.29,0.54,2.84,-3.09,-3.38,
3.442,-6.70,-19.29,0.54,2.49,-2.90,-3.26,
3.446,-6.70,-19.29,0.54,2.11,-2.66,-3.17,
3.447,-7.01,-18.96,0.47,2.11,-2.66,-3.17,
3.466,-7.01,-18.96,0.47,1.72,-2.38,-3.11,
3.467,-7.45,-18.61,0.50,1.72,-2.38,-3.11,
3.468,-7.96,-18.45,0.54,1.72,-2.38,-3.11,
3.468,-7.96,-18.45,0.54,1.32,-2.07,-3.06,
3.469,-8.38,-18.53,0.53,1.32,-2.07,-3.06,
3.469,-8.38,-18.53,0.53,0.93,-1.74,-3.01,
3.47,-8.63,-18.88,0.47,0.93,-1.74,-3.01,
3.471,-8.63,-18.88,0.47,0.54,-1.41,-2.97,
3.471,-8.63,-18.88,0.47,0.16,-1.10,-2.92,
3.472,-8.74,-19.53,0.31,0.16,-1.10,-2.92,
3.475,-8.87,-20.32,0.05,0.16,-1.10,-2.92,
3.476,-8.87,-20.32,0.05,-0.20,-0.82,-2.88,
3.48,-9.34,-21.12,-0.25,-0.20,-0.82,-2.88,
3.481,-9.34,-21.12,-0.25,-0.55,-0.54,-2.84,
3.486,-10.18,-21.80,-0.59,-0.55,-0.54,-2.84,
3.487,-10.18,-21.80,-0.59,-0.89,-0.30,-2.78,
3.49,-10.18,-21.80,-0.59,-1.21,-0.12,-2.70,
3.491,-11.09,-22.24,-0.86,-1.21,-0.12,-2.70,
3.495,-11.09,-22.24,-0.86,-1.52,-0.03,-2.58,
3.495,-11.89,-22.56,-1.15,-1.52,-0.03,-2.58,
3.505,-12.45,-22.91,-1.29,-1.52,-0.03,-2.58,
3.506,-12.45,-22.91,-1.29,-1.83,-0.01,-2.41,
3.507,-12.69,-23.27,-1.21,-1.83,-0.01,-2.41,
3.507,-12.69,-23.27,-1.21,-2.14,-0.06,-2.22,
3.51,-12.69,-23.27,-1.21,-2.43,-0.15,-2.01,
3.51,-12.56,-23.68,-0.81,-2.43,-0.15,-2.01,
3.528,-12.56,-23.68,-0.81,-2.68,-0.26,-1.81,
3.529,-12.39,-24.06,-0.21,-2.68,-0.26,-1.81,
3.529,-12.39,-24.06,-0.21,-2.88,-0.38,-1.62,
3.53,-12.33,-24.53,0.72,-2.88,-0.38,-1.62,
3.53,-12.33,-24.53,0.72,-3.02,-0.52,-1.43,
3.531,-12.60,-24.94,1.54,-3.02,-0.52,-1.43,
3.532,-12.60,-24.94,1.54,-3.10,-0.71,-1.20,
3.532,-13.02,-25.24,2.38,-3.10,-0.71,-1.20,
3.535,-13.02,-25.24,2.38,-3.12,-0.91,-0.91,
3.535,-13.52,-25.24,3.29,-3.12,-0.91,-0.91,
3.539,-13.52,-25.24,3.29,-3.08,-1.11,-0.57,
3.54,-13.82,-25.63,4.08,-3.08,-1.11,-0.57,
3.544,-13.82,-25.63,4.08,-2.99,-1.34,-0.17,
3.544,-14.17,-26.03,4.69,-2.99,-1.34,-0.17,
3.549,-14.50,-26.41,5.10,-2.99,-1.34,-0.17,
3.551,-14.50,-26.41,5.10,-2.90,-1.58,0.30,
3.553,-14.50,-26.41,5.10,-2.78,-1.76,0.82,
3.554,-14.73,-26.69,5.61,-2.78,-1.76,0.82,
3.558,-14.82,-26.98,6.10,-2.78,-1.76,0.82,
3.559,-14.82,-26.98,6.10,-2.64,-1.86,1.40,
3.563,-14.71,-27.33,6.55,-2.64,-1.86,1.40,
3.564,-14.71,-27.33,6.55,-2.49,-1.90,2.03,
3.569,-14.16,-27.72,7.01,-2.49,-1.90,2.03,
3.57,-14.16,-27.72,7.01,-2.32,-1.91,2.72,
3.573,-13.30,-28.18,7.27,-2.32,-1.91,2.72,
3.575,-13.30,-28.18,7.27,-2.14,-1.89,3.45,
3.578,-12.19,-28.66,7.34,-2.14,-1.89,3.45,
3.579,-12.19,-28.66,7.34,-1.95,-1.84,4.20,
3.583,-12.19,-28.66,7.34,-1.75,-1.76,4.97,
3.584,-10.89,-29.04,7.38,-1.75,-1.76,4.97,
3.588,-10.89,-29.04,7.38,-1.55,-1.67,5.73,
3.589,-9.30,-29.39,7.40,-1.55,-1.67,5.73,
3.593,-7.53,-29.71,7.35,-1.55,-1.67,5.73,
3.594,-7.53,-29.71,7.35,-1.36,-1.55,6.49,
3.641,-5.67,-30.03,7.24,-1.36,-1.55,6.49,
3.642,-5.67,-30.03,7.24,-1.18,-1.41,7.22,
3.642,-5.67,-30.03,7.24,-1.01,-1.25,7.90,
3.643,-3.68,-30.38,7.05,-1.01,-1.25,7.90,
3.644,-3.68,-30.38,7.05,-0.84,-1.09,8.54,
3.645,-1.68,-30.73,6.90,-0.84,-1.09,8.54,
3.645,-1.68,-30.73,6.90,-0.68,-0.93,9.12,
3.646,0.25,-31.04,6.83,-0.68,-0.93,9.12,
3.647,0.25,-31.04,6.83,-0.53,-0.77,9.66,
3.647,2.31,-31.39,6.74,-0.53,-0.77,9.66,
3.648,2.31,-31.39,6.74,-0.39,-0.59,10.14,
3.648,4.57,-31.77,6.61,-0.39,-0.59,10.14,
3.649,7.16,-32.08,6.42,-0.39,-0.59,10.14,
3.65,7.16,-32.08,6.42,-0.26,-0.40,10.56,
3.65,7.16,-32.08,6.42,-0.15,-0.22,10.91,
3.651,10.10,-32.19,6.20,-0.15,-0.22,10.91,
3.651,10.10,-32.19,6.20,-0.04,-0.05,11.16,
3.652,13.48,-32.01,6.06,-0.04,-0.05,11.16,
3.653,13.48,-32.01,6.06,0.06,0.11,11.31,
3.653,17.01,-31.83,6.08,0.06,0.11,11.31,
3.654,17.01,-31.83,6.08,0.17,0.26,11.33,
3.654,20.32,-31.56,6.21,0.17,0.26,11.33,
3.655,20.32,-31.56,6.21,0.29,0.43,11.24,
3.655,23.07,-31.02,6.42,0.29,0.43,11.24,
3.656,23.07,-31.02,6.42,0.43,0.62,11.03,
3.656,25.08,-30.25,6.48,0.43,0.62,11.03,
3.665,25.08,-30.25,6.48,0.55,0.82,10.75,
3.666,26.17,-29.30,6.28,0.55,0.82,10.75,
3.667,26.17,-29.30,6.28,0.65,1.02,10.43,
3.667,26.57,-28.32,5.70,0.65,1.02,10.43,
3.688,26.57,-28.32,5.70,0.71,1.21,10.11,
3.689,26.53,-27.43,4.89,0.71,1.21,10.11,
3.69,26.33,-26.78,3.89,0.71,1.21,10.11,
3.69,26.33,-26.78,3.89,0.71,1.37,9.80,
3.691,25.97,-26.39,2.70,0.71,1.37,9.80,
3.691,25.97,-26.39,2.70,0.65,1.51,9.52,
3.692,25.51,-26.16,1.54,0.65,1.51,9.52,
3.692,25.51,-26.16,1.54,0.49,1.62,9.28,
3.692,24.84,-25.99,0.40,0.49,1.62,9.28,
3.693,24.84,-25.99,0.40,0.25,1.71,9.08,
3.695,24.07,-25.89,-0.50,0.25,1.71,9.08,
3.696,24.07,-25.89,-0.50,-0.09,1.79,8.94,
3.707,24.07,-25.89,-0.50,-0.50,1.87,8.85,
3.708,23.25,-25.86,-1.13,-0.50,1.87,8.85,
3.709,22.60,-25.91,-1.38,-0.50,1.87,8.85,
3.709,22.60,-25.91,-1.38,-0.96,1.97,8.83,
3.71,22.14,-26.13,-1.19,-0.96,1.97,8.83,
3.711,22.14,-26.13,-1.19,-1.45,2.06,8.86,
3.727,22.14,-26.13,-1.19,-1.94,2.16,8.93,
3.728,22.01,-26.55,-0.60,-1.94,2.16,8.93,
3.729,22.01,-26.55,-0.60,-2.41,2.26,9.04,
3.729,22.07,-27.03,0.18,-2.41,2.26,9.04,
3.73,22.07,-27.03,0.18,-2.83,2.35,9.18,
3.73,22.33,-27.51,1.05,-2.83,2.35,9.18,
3.731,22.33,-27.51,1.05,-3.21,2.43,9.34,
3.731,22.74,-27.91,1.95,-3.21,2.43,9.34,
3.734,22.74,-27.91,1.95,-3.52,2.50,9.51,
3.735,23.23,-28.12,2.85,-3.52,2.50,9.51,
3.739,23.75,-28.23,3.64,-3.52,2.50,9.51,
3.74,23.75,-28.23,3.64,-3.79,2.55,9.67,
3.744,24.27,-28.22,4.35,-3.79,2.55,9.67,
3.745,24.27,-28.22,4.35,-4.00,2.59,9.82,
3.755,24.27,-28.22,4.35,-4.17,2.61,9.96,
3.756,24.78,-28.18,5.08,-4.17,2.61,9.96,
3.757,25.19,-27.99,5.81,-4.17,2.61,9.96,
3.757,25.19,-27.99,5.81,-4.29,2.60,10.09,
3.758,25.19,-27.99,5.81,-4.36,2.57,10.19,
3.759,25.76,-27.63,6.63,-4.36,2.57,10.19,
3.763,25.76,-27.63,6.63,-4.37,2.51,10.27,
3.765,26.92,-27.16,7.51,-4.37,2.51,10.27,
3.78,28.69,-26.55,8.51,-4.37,2.51,10.27,
3.782,28.69,-26.55,8.51,-4.31,2.42,10.32,
3.783,30.32,-25.19,9.57,-4.31,2.42,10.32,
3.783,30.32,-25.19,9.57,-4.17,2.27,10.30,
3.784,31.67,-23.34,10.57,-4.17,2.27,10.30,
3.784,31.67,-23.34,10.57,-3.93,2.06,10.20,
3.785,31.67,-23.34,10.57,-3.63,1.82,10.02,
3.785,32.64,-21.60,11.06,-3.63,1.82,10.02,
3.8,32.64,-21.60,11.06,-3.26,1.53,9.76,
3.801,33.30,-19.61,11.48,-3.26,1.53,9.76,
3.802,33.99,-17.62,11.66,-3.26,1.53,9.76,
3.802,33.99,-17.62,11.66,-2.85,1.23,9.46,
3.803,34.44,-15.51,11.66,-2.85,1.23,9.46,
3.804,34.44,-15.51,11.66,-2.38,0.95,9.09,
3.804,34.48,-13.51,11.37,-2.38,0.95,9.09,
3.805,34.48,-13.51,11.37,-1.88,0.66,8.68,
3.807,34.48,-13.51,11.37,-1.40,0.34,8.23,
3.808,34.18,-11.66,10.73,-1.40,0.34,8.23,
3.812,34.18,-11.66,10.73,-0.95,0.01,7.79,
3.813,33.52,-9.99,9.78,-0.95,0.01,7.79,
3.824,32.62,-8.48,8.67,-0.95,0.01,7.79,
3.825,32.62,-8.48,8.67,-0.56,-0.32,7.35,
3.826,31.64,-7.09,7.52,-0.56,-0.32,7.35,
3.826,31.64,-7.09,7.52,-0.24,-0.60,6.95,
3.827,31.64,-7.09,7.52,-0.01,-0.81,6.59,
3.827,30.75,-5.80,6.53,-0.01,-0.81,6.59,
3.832,30.75,-5.80,6.53,0.15,-0.93,6.29,
3.832,30.03,-4.61,5.61,0.15,-0.93,6.29,
3.852,30.03,-4.61,5.61,0.23,-0.98,6.03,
3.852,29.47,-3.43,4.86,0.23,-0.98,6.03,
3.888,29.47,-3.43,4.86,0.25,-0.96,5.80,
3.889,29.02,-2.23,4.30,0.25,-0.96,5.80,
3.89,28.72,-1.06,3.85,0.25,-0.96,5.80,
3.89,28.72,-1.06,3.85,0.21,-0.87,5.59,
3.891,28.46,0.14,3.47,0.21,-0.87,5.59,
3.891,28.46,0.14,3.47,0.12,-0.73,5.39,
3.892,28.23,1.42,3.11,0.12,-0.73,5.39,
3.892,28.23,1.42,3.11,-0.01,-0.58,5.18,
3.893,28.17,2.65,2.75,-0.01,-0.58,5.18,
3.894,28.17,2.65,2.75,-0.18,-0.43,4.94,
3.894,27.99,3.55,2.73,-0.18,-0.43,4.94,
3.895,27.99,3.55,2.73,-0.39,-0.29,4.67,
3.895,27.74,4.40,2.83,-0.39,-0.29,4.67,
3.896,27.74,4.40,2.83,-0.61,-0.15,4.37,
3.897,27.26,5.13,2.99,-0.61,-0.15,4.37,
3.898,27.26,5.13,2.99,-0.83,0.00,4.03,
3.898,27.26,5.13,2.99,-1.04,0.16,3.69,
3.899,26.65,5.68,3.24,-1.04,0.16,3.69,
3.899,26.65,5.68,3.24,-1.25,0.33,3.34,
3.9,25.93,6.04,3.53,-1.25,0.33,3.34,
3.9,25.93,6.04,3.53,-1.44,0.51,3.00,
3.901,25.13,6.17,3.90,-1.44,0.51,3.00,
3.901,25.13,6.17,3.90,-1.60,0.70,2.68,
3.902,24.23,6.15,4.33,-1.60,0.70,2.68,
3.902,23.29,6.15,4.69,-1.60,0.70,2.68,
3.903,23.29,6.15,4.69,-1.72,0.88,2.38,
3.91,22.33,6.16,4.94,-1.72,0.88,2.38,
3.911,22.33,6.16,4.94,-1.82,1.07,2.12,
3.911,22.33,6.16,4.94,-1.89,1.25,1.89,
3.911,21.23,6.18,5.04,-1.89,1.25,1.89,
3.914,21.23,6.18,5.04,-1.95,1.44,1.69,
3.915,20.34,6.36,4.95,-1.95,1.44,1.69,
3.936,20.34,6.36,4.95,-2.00,1.61,1.50,
3.938,20.30,6.97,4.45,-2.00,1.61,1.50,
3.938,20.30,6.97,4.45,-2.06,1.74,1.30,
3.938,18.63,6.80,4.83,-2.06,1.74,1.30,
3.939,18.63,6.80,4.83,-2.09,1.86,1.16,
3.939,17.03,6.98,4.92,-2.09,1.86,1.16,
3.94,17.03,6.98,4.92,-2.10,1.97,1.08,
3.94,15.41,6.94,4.75,-2.10,1.97,1.08,
3.941,15.41,6.94,4.75,-2.10,2.06,1.06,
3.941,14.23,6.60,4.88,-2.10,2.06,1.06,
3.944,14.23,6.60,4.88,-2.09,2.16,1.10,
3.944,13.84,6.52,5.09,-2.09,2.16,1.10,
3.95,13.84,6.52,5.09,-2.06,2.23,1.17,
3.951,14.33,6.80,5.02,-2.06,2.23,1.17,
3.954,14.33,6.80,5.02,-2.04,2.26,1.21,
3.955,15.06,7.06,5.04,-2.04,2.26,1.21,
3.959,15.06,7.06,5.04,-2.00,2.26,1.20,
3.959,15.05,7.73,5.35,-2.00,2.26,1.20,
3.963,15.05,7.73,5.35,-1.94,2.23,1.16,
3.964,14.36,8.51,5.64,-1.94,2.23,1.16,
3.973,14.36,8.51,5.64,-1.85,2.18,1.14,
3.974,13.69,9.07,5.86,-1.85,2.18,1.14,
3.974,13.69,9.07,5.86,-1.75,2.10,1.14,
3.974,13.37,9.42,5.91,-1.75,2.10,1.14,
3.978,13.37,9.42,5.91,-1.65,1.99,1.15,
3.979,13.38,9.62,5.95,-1.65,1.99,1.15,
3.995,13.48,9.80,5.97,-1.65,1.99,1.15,
3.996,13.48,9.80,5.97,-1.55,1.84,1.15,
3.996,13.48,9.80,5.97,-1.46,1.67,1.14,
3.997,13.57,9.97,6.05,-1.46,1.67,1.14,
3.998,13.57,9.97,6.05,-1.36,1.49,1.11,
3.998,13.72,10.17,6.16,-1.36,1.49,1.11,
3.999,13.80,10.41,6.33,-1.36,1.49,1.11,
3.999,13.80,10.41,6.33,-1.27,1.32,1.08,
4.002,13.80,10.41,6.33,-1.18,1.16,1.03,
4.003,14.01,10.64,6.56,-1.18,1.16,1.03,
4.008,14.01,10.64,6.56,-1.10,0.99,0.98,
4.008,14.22,10.80,6.78,-1.10,0.99,0.98,
4.012,14.22,10.80,6.78,-1.01,0.83,0.92,
4.012,14.42,10.92,7.07,-1.01,0.83,0.92,
4.017,14.67,11.02,7.35,-1.01,0.83,0.92,
4.019,14.67,11.02,7.35,-0.93,0.68,0.87,
4.022,14.84,11.20,7.65,-0.93,0.68,0.87,
4.023,14.84,11.20,7.65,-0.85,0.54,0.81,
4.027,14.99,11.49,8.01,-0.85,0.54,0.81,
4.028,14.99,11.49,8.01,-0.75,0.42,0.76,
4.032,15.19,11.74,8.46,-0.75,0.42,0.76,
4.033,15.19,11.74,8.46,-0.64,0.29,0.71,
4.037,15.19,11.74,8.46,-0.52,0.15,0.67,
4.037,15.24,12.06,9.05,-0.52,0.15,0.67,
4.041,15.24,12.06,9.05,-0.38,0.00,0.64,
4.042,15.47,12.33,9.58,-0.38,0.00,0.64,
4.046,15.47,12.33,9.58,-0.21,-0.16,0.64,
4.047,15.93,12.54,10.08,-0.21,-0.16,0.64,
4.057,15.93,12.54,10.08,-0.00,-0.35,0.64,
4.058,16.71,12.64,10.62,-0.00,-0.35,0.64,
4.059,16.71,12.64,10.62,0.22,-0.55,0.63,
4.059,17.67,12.65,11.16,0.22,-0.55,0.63,
4.061,17.67,12.65,11.16,0.48,-0.76,0.60,
4.061,18.63,12.56,11.62,0.48,-0.76,0.60,
4.066,18.63,12.56,11.62,0.76,-0.95,0.54,
4.066,19.56,12.34,11.93,0.76,-0.95,0.54,
4.09,20.64,12.14,12.18,0.76,-0.95,0.54,
4.092,20.64,12.14,12.18,1.06,-1.11,0.45,
4.092,20.64,12.14,12.18,1.38,-1.26,0.30,
4.093,21.79,11.88,12.41,1.38,-1.26,0.30,
4.094,21.79,11.88,12.41,1.72,-1.39,0.08,
4.094,22.96,11.59,12.50,1.72,-1.39,0.08,
4.129,22.96,11.59,12.50,2.06,-1.47,-0.21,
4.13,23.95,11.21,12.35,2.06,-1.47,-0.21,
4.131,24.72,10.90,11.89,2.06,-1.47,-0.21,
4.131,24.72,10.90,11.89,2.41,-1.52,-0.58,
4.132,24.72,10.90,11.89,2.75,-1.51,-1.01,
4.133,25.23,10.54,11.27,2.75,-1.51,-1.01,
4.134,25.33,10.15,10.37,2.75,-1.51,-1.01,
4.135,25.33,10.15,10.37,3.06,-1.48,-1.48,
4.135,25.33,10.15,10.37,3.32,-1.44,-1.98,
4.136,25.05,9.63,9.17,3.32,-1.44,-1.98,
4.136,25.05,9.63,9.17,3.52,-1.41,-2.49,
4.137,24.42,8.98,7.80,3.52,-1.41,-2.49,
4.138,23.63,8.16,6.28,3.52,-1.41,-2.49,
4.139,23.63,8.16,6.28,3.63,-1.38,-2.97,
4.14,22.77,7.20,4.82,3.63,-1.38,-2.97,
4.14,22.77,7.20,4.82,3.63,-1.34,-3.43,
4.141,22.77,7.20,4.82,3.55,-1.27,-3.85,
4.141,21.87,6.15,3.52,3.55,-1.27,-3.85,
4.142,21.87,6.15,3.52,3.38,-1.19,-4.22,
4.142,20.99,5.14,2.44,3.38,-1.19,-4.22,
4.143,20.99,5.14,2.44,3.15,-1.07,-4.53,
4.143,20.23,4.22,1.57,3.15,-1.07,-4.53,
4.144,20.23,4.22,1.57,2.88,-0.94,-4.79,
4.144,19.58,3.31,0.90,2.88,-0.94,-4.79,
4.145,19.00,2.43,0.49,2.88,-0.94,-4.79,
4.145,19.00,2.43,0.49,2.57,-0.77,-5.00,
4.149,18.56,1.49,0.33,2.57,-0.77,-5.00,
4.15,18.56,1.49,0.33,2.25,-0.61,-5.17,
4.157,18.56,1.49,0.33,1.92,-0.46,-5.29,
4.158,18.25,0.59,0.34,1.92,-0.46,-5.29,
4.159,18.25,0.59,0.34,1.61,-0.32,-5.38,
4.159,18.23,-0.27,0.53,1.61,-0.32,-5.38,
4.163,18.23,-0.27,0.53,1.31,-0.20,-5.46,
4.164,18.52,-1.18,0.88,1.31,-0.20,-5.46,
4.181,19.08,-2.19,1.38,1.31,-0.20,-5.46,
4.182,19.08,-2.19,1.38,1.05,-0.11,-5.52,
4.183,19.94,-3.33,1.91,1.05,-0.11,-5.52,
4.183,19.94,-3.33,1.91,0.82,-0.05,-5.59,
4.184,19.94,-3.33,1.91,0.63,-0.02,-5.68,
4.185,21.07,-4.56,2.44,0.63,-0.02,-5.68,
4.185,21.07,-4.56,2.44,0.49,-0.02,-5.79,
4.186,22.31,-5.84,3.02,0.49,-0.02,-5.79,
4.189,23.72,-7.16,3.50,0.49,-0.02,-5.79,
4.19,23.72,-7.16,3.50,0.39,-0.04,-5.93,
4.193,25.25,-8.54,4.02,0.39,-0.04,-5.93,
4.193,25.25,-8.54,4.02,0.34,-0.07,-6.11,
4.197,26.93,-10.12,4.53,0.34,-0.07,-6.11,
4.198,26.93,-10.12,4.53,0.33,-0.12,-6.34,
4.202,26.93,-10.12,4.53,0.38,-0.18,-6.60,
4.203,28.66,-11.80,5.10,0.38,-0.18,-6.60,
4.207,28.66,-11.80,5.10,0.48,-0.23,-6.90,
4.208,30.40,-13.60,5.64,0.48,-0.23,-6.90,
4.212,30.40,-13.60,5.64,0.63,-0.24,-7.24,
4.212,31.84,-15.36,5.87,0.63,-0.24,-7.24,
4.218,31.84,-15.36,5.87,0.82,-0.20,-7.61,
4.219,32.78,-17.06,5.96,0.82,-0.20,-7.61,
4.222,33.27,-18.64,5.72,0.82,-0.20,-7.61,
4.223,33.27,-18.64,5.72,1.03,-0.11,-7.98,
4.227,33.28,-19.99,5.20,1.03,-0.11,-7.98,
4.228,33.28,-19.99,5.20,1.26,0.03,-8.35,
4.232,32.99,-21.23,4.38,1.26,0.03,-8.35,
4.232,32.99,-21.23,4.38,1.48,0.19,-8.70,
4.237,32.67,-22.63,3.42,1.48,0.19,-8.70,
4.238,32.67,-22.63,3.42,1.67,0.35,-9.02,
4.242,32.67,-22.63,3.42,1.82,0.49,-9.30,
4.242,32.30,-24.17,2.20,1.82,0.49,-9.30,
4.247,31.94,-25.73,0.80,1.82,0.49,-9.30,
4.247,31.94,-25.73,0.80,1.92,0.62,-9.54,
4.251,31.48,-27.22,-0.81,1.92,0.62,-9.54,
4.253,31.48,-27.22,-0.81,1.95,0.73,-9.75,
4.256,30.83,-28.48,-2.29,1.95,0.73,-9.75,
4.257,30.83,-28.48,-2.29,1.87,0.84,-9.93,
4.261,30.83,-28.48,-2.29,1.72,0.93,-10.07,
4.262,29.99,-29.51,-3.40,1.72,0.93,-10.07,
4.266,29.00,-30.39,-4.11,1.72,0.93,-10.07,
4.267,29.00,-30.39,-4.11,1.50,1.03,-10.16,
4.276,27.92,-31.13,-4.50,1.50,1.03,-10.16,
4.277,27.92,-31.13,-4.50,1.23,1.13,-10.22,
4.278,26.80,-31.64,-4.44,1.23,1.13,-10.22,
4.279,26.80,-31.64,-4.44,0.95,1.22,-10.23,
4.28,26.80,-31.64,-4.44,0.67,1.28,-10.20,
4.281,25.69,-32.12,-4.12,0.67,1.28,-10.20,
4.301,24.65,-32.50,-3.37,0.67,1.28,-10.20,
4.302,24.65,-32.50,-3.37,0.43,1.33,-10.13,
4.303,24.65,-32.50,-3.37,0.24,1.36,-10.04,
4.303,23.59,-32.83,-2.28,0.24,1.36,-10.04,
4.304,22.48,-32.99,-0.41,0.24,1.36,-10.04,
4.304,22.48,-32.99,-0.41,0.14,1.36,-9.91,
4.305,22.48,-32.99,-0.41,0.14,1.34,-9.76,
4.306,21.27,-33.01,1.58,0.14,1.34,-9.76,
4.306,21.27,-33.01,1.58,0.25,1.24,-9.58,
4.306,20.36,-32.92,2.79,0.25,1.24,-9.58,
4.31,20.36,-32.92,2.79,0.45,1.06,-9.38,
4.31,19.68,-32.72,3.61,0.45,1.06,-9.38,
4.314,19.68,-32.72,3.61,0.69,0.84,-9.19,
4.315,18.80,-32.43,4.28,0.69,0.84,-9.19,
4.325,18.80,-32.43,4.28,0.98,0.60,-8.99,
4.326,17.60,-32.02,5.10,0.98,0.60,-8.99,
4.326,17.60,-32.02,5.10,1.30,0.36,-8.81,
4.327,16.46,-31.55,5.99,1.30,0.36,-8.81,
4.364,16.46,-31.55,5.99,1.63,0.12,-8.64,
4.365,15.58,-30.99,6.46,1.63,0.12,-8.64,
4.365,15.58,-30.99,6.46,1.97,-0.13,-8.47,
4.366,14.37,-30.29,6.61,1.97,-0.13,-8.47,
4.366,14.37,-30.29,6.61,2.29,-0.37,-8.30,
4.367,13.62,-29.92,6.60,2.29,-0.37,-8.30,
4.368,13.62,-29.92,6.60,2.59,-0.56,-8.17,
4.368,12.86,-29.46,6.59,2.59,-0.56,-8.17,
4.369,12.86,-29.46,6.59,2.86,-0.74,-8.06,
4.37,12.05,-28.97,6.50,2.86,-0.74,-8.06,
4.371,12.05,-28.97,6.50,3.09,-0.90,-7.96,
4.371,11.01,-28.38,6.38,3.09,-0.90,-7.96,
4.372,11.01,-28.38,6.38,3.28,-1.01,-7.87,
4.374,9.91,-27.75,6.14,3.28,-1.01,-7.87,
4.375,9.91,-27.75,6.14,3.43,-1.04,-7.78,
4.375,8.99,-27.16,5.70,3.43,-1.04,-7.78,
4.375,8.99,-27.16,5.70,3.53,-1.01,-7.67,
4.376,8.23,-26.79,5.19,3.53,-1.01,-7.67,
4.376,8.23,-26.79,5.19,3.58,-0.92,-7.56,
4.377,7.67,-26.44,4.73,3.58,-0.92,-7.56,
4.385,7.67,-26.44,4.73,3.59,-0.79,-7.45,
4.386,7.10,-26.07,4.40,3.59,-0.79,-7.45,
4.387,7.10,-26.07,4.40,3.56,-0.63,-7.34,
4.387,6.54,-25.66,4.11,3.56,-0.63,-7.34,
4.388,5.83,-25.21,3.91,3.56,-0.63,-7.34,
4.388,5.83,-25.21,3.91,3.51,-0.44,-7.23,
4.414,5.83,-25.21,3.91,3.44,-0.21,-7.13,
4.414,5.12,-24.74,3.68,3.44,-0.21,-7.13,
4.415,5.12,-24.74,3.68,3.37,0.01,-7.02,
4.416,4.39,-24.26,3.46,3.37,0.01,-7.02,
4.416,4.39,-24.26,3.46,3.31,0.23,-6.89,
4.416,3.64,-23.80,3.21,3.31,0.23,-6.89,
4.417,3.64,-23.80,3.21,3.23,0.43,-6.76,
4.417,2.93,-23.31,2.92,3.23,0.43,-6.76,
4.418,2.93,-23.31,2.92,3.15,0.60,-6.63,
4.418,2.31,-22.91,2.60,3.15,0.60,-6.63,
4.419,2.31,-22.91,2.60,3.06,0.76,-6.47,
4.419,1.78,-22.56,2.27,3.06,0.76,-6.47,
4.426,1.78,-22.56,2.27,2.97,0.89,-6.31,
4.427,1.32,-22.18,2.01,2.97,0.89,-6.31,
4.428,1.32,-22.18,2.01,2.88,0.99,-6.15,
4.428,0.87,-21.83,1.84,2.88,0.99,-6.15,
4.432,0.87,-21.83,1.84,2.80,1.07,-6.00,
4.433,0.44,-21.52,1.75,2.80,1.07,-6.00,
4.452,0.08,-21.23,1.75,2.80,1.07,-6.00,
4.453,0.08,-21.23,1.75,2.72,1.12,-5.83,
4.453,0.08,-21.23,1.75,2.66,1.13,-5.68,
4.453,-0.09,-21.10,1.78,2.66,1.13,-5.68,
4.454,-0.27,-21.04,1.87,2.66,1.13,-5.68,
4.454,-0.27,-21.04,1.87,2.61,1.12,-5.52,
4.455,-0.27,-21.04,1.87,2.59,1.07,-5.38,
4.455,-0.47,-20.91,2.07,2.59,1.07,-5.38,
4.456,-0.72,-20.62,2.22,2.59,1.07,-5.38,
4.456,-0.72,-20.62,2.22,2.59,1.00,-5.25,
4.461,-0.72,-20.62,2.22,2.60,0.91,-5.13,
4.461,-0.87,-20.41,2.31,2.60,0.91,-5.13,
4.466,-0.87,-20.41,2.31,2.62,0.82,-5.02,
4.466,-1.06,-20.32,2.29,2.62,0.82,-5.02,
4.471,-1.25,-20.15,2.29,2.62,0.82,-5.02,
4.472,-1.25,-20.15,2.29,2.64,0.71,-4.92,
4.475,-1.56,-19.97,2.31,2.64,0.71,-4.92,
4.476,-1.56,-19.97,2.31,2.67,0.58,-4.81,
4.48,-1.70,-19.78,2.36,2.67,0.58,-4.81,
4.481,-1.70,-19.78,2.36,2.69,0.43,-4.69,
4.485,-1.70,-19.78,2.36,2.70,0.28,-4.58,
4.486,-1.81,-19.65,2.28,2.70,0.28,-4.58,
4.491,-1.81,-19.65,2.28,2.70,0.12,-4.46,
4.492,-1.84,-19.61,2.32,2.70,0.12,-4.46,
4.495,-1.84,-19.61,2.32,2.69,-0.03,-4.35,
4.495,-1.78,-19.62,2.43,2.69,-0.03,-4.35,
4.5,-1.78,-19.62,2.43,2.68,-0.17,-4.25,
4.5,-1.80,-19.65,2.46,2.68,-0.17,-4.25,
4.509,-1.93,-19.67,2.65,2.68,-0.17,-4.25,
4.51,-1.93,-19.67,2.65,2.67,-0.33,-4.14,
4.51,-2.21,-19.67,2.93,2.67,-0.33,-4.14,
4.511,-2.21,-19.67,2.93,2.67,-0.51,-4.03,
4.514,-2.21,-19.67,2.93,2.67,-0.68,-3.89,
4.515,-2.56,-19.67,3.31,2.67,-0.68,-3.89,
4.535,-2.56,-19.67,3.31,2.68,-0.84,-3.74,
4.536,-2.80,-19.63,3.79,2.68,-0.84,-3.74,
4.536,-2.80,-19.63,3.79,2.71,-0.98,-3.59,
4.537,-2.85,-19.62,4.29,2.71,-0.98,-3.59,
4.537,-2.85,-19.62,4.29,2.75,-1.11,-3.47,
4.538,-2.71,-19.65,4.70,2.75,-1.11,-3.47,
4.538,-2.71,-19.65,4.70,2.82,-1.25,-3.38,
4.539,-2.71,-19.77,4.74,2.82,-1.25,-3.38,
4.54,-2.71,-19.77,4.74,2.88,-1.41,-3.32,
4.54,-2.97,-19.89,4.32,2.88,-1.41,-3.32,
4.544,-2.97,-19.89,4.32,2.91,-1.58,-3.27,
4.545,-3.39,-19.95,3.48,2.91,-1.58,-3.27,
4.548,-3.91,-19.92,2.26,2.91,-1.58,-3.27,
4.549,-3.91,-19.92,2.26,2.88,-1.74,-3.23,
4.553,-4.42,-20.06,0.87,2.88,-1.74,-3.23,
4.554,-4.42,-20.06,0.87,2.74,-1.89,-3.19,
4.559,-4.98,-20.27,-0.53,2.74,-1.89,-3.19,
4.559,-4.98,-20.27,-0.53,2.49,-2.00,-3.14,
4.563,-5.51,-20.60,-1.77,2.49,-2.00,-3.14,
4.564,-5.51,-20.60,-1.77,2.12,-2.05,-3.06,
4.568,-6.21,-20.91,-2.91,2.12,-2.05,-3.06,
4.569,-6.21,-20.91,-2.91,1.67,-2.04,-2.97,
4.599,-7.07,-21.16,-3.85,1.67,-2.04,-2.97,
4.6,-7.07,-21.16,-3.85,1.13,-1.96,-2.82,
4.6,-8.06,-21.43,-4.51,1.13,-1.96,-2.82,
4.601,-8.06,-21.43,-4.51,0.53,-1.83,-2.62,
4.602,-9.21,-21.70,-4.99,0.53,-1.83,-2.62,
4.602,-9.21,-21.70,-4.99,-0.11,-1.68,-2.36,
4.603,-10.16,-22.05,-5.02,-0.11,-1.68,-2.36,
4.603,-10.16,-22.05,-5.02,-0.79,-1.54,-2.03,
4.604,-10.75,-22.59,-4.66,-0.79,-1.54,-2.03,
4.605,-10.75,-22.59,-4.66,-1.46,-1.43,-1.63,
4.605,-10.78,-23.10,-3.81,-1.46,-1.43,-1.63,
4.606,-10.78,-23.10,-3.81,-2.11,-1.37,-1.19,
4.607,-10.78,-23.10,-3.81,-2.70,-1.37,-0.72,
4.607,-10.30,-23.66,-2.54,-2.70,-1.37,-0.72,
4.608,-9.62,-24.15,-1.08,-2.70,-1.37,-0.72,
4.608,-9.62,-24.15,-1.08,-3.19,-1.42,-0.24,
4.612,-8.56,-24.51,0.65,-3.19,-1.42,-0.24,
4.613,-8.56,-24.51,0.65,-3.57,-1.51,0.24,
4.617,-7.54,-24.89,2.38,-3.57,-1.51,0.24,
4.618,-7.54,-24.89,2.38,-3.82,-1.62,0.69,
4.625,-6.85,-25.07,3.96,-3.82,-1.62,0.69,
4.626,-6.85,-25.07,3.96,-3.95,-1.76,1.13,
4.627,-6.35,-25.17,5.27,-3.95,-1.76,1.13,
4.627,-6.35,-25.17,5.27,-3.97,-1.88,1.57,
4.632,-6.35,-25.17,5.27,-3.92,-1.99,2.03,
4.632,-5.98,-25.06,6.33,-3.92,-1.99,2.03,
4.649,-5.98,-25.06,6.33,-3.79,-2.09,2.51,
4.65,-5.79,-24.93,7.45,-3.79,-2.09,2.51,
4.651,-5.79,-24.93,7.45,-3.62,-2.16,3.01,
4.652,-5.44,-24.78,8.47,-3.62,-2.16,3.01,
4.652,-5.44,-24.78,8.47,-3.40,-2.19,3.52,
4.653,-5.01,-24.56,9.41,-3.40,-2.19,3.52,
4.653,-4.52,-24.40,10.11,-3.40,-2.19,3.52,
4.654,-4.52,-24.40,10.11,-3.14,-2.17,4.03,
4.658,-4.52,-24.40,10.11,-2.84,-2.15,4.55,
4.659,-3.89,-24.30,10.62,-2.84,-2.15,4.55,
4.661,-3.09,-24.18,10.98,-2.84,-2.15,4.55,
4.662,-3.09,-24.18,10.98,-2.53,-2.11,5.06,
4.666,-1.88,-23.99,11.12,-2.53,-2.11,5.06,
4.667,-1.88,-23.99,11.12,-2.21,-2.05,5.57,
4.671,-0.41,-23.70,11.13,-2.21,-2.05,5.57,
4.672,-0.41,-23.70,11.13,-1.88,-1.99,6.05,
4.676,1.23,-23.35,11.13,-1.88,-1.99,6.05,
4.676,1.23,-23.35,11.13,-1.57,-1.92,6.50,
4.68,2.85,-22.99,11.11,-1.57,-1.92,6.50,
4.681,2.85,-22.99,11.11,-1.25,-1.81,6.91,
4.686,2.85,-22.99,11.11,-0.93,-1.67,7.25,
4.687,4.30,-22.69,10.98,-0.93,-1.67,7.25,
4.69,4.30,-22.69,10.98,-0.63,-1.50,7.54,
4.691,5.76,-22.42,10.66,-0.63,-1.50,7.54,
4.695,5.76,-22.42,10.66,-0.34,-1.31,7.77,
4.696,7.21,-22.23,10.19,-0.34,-1.31,7.77,
4.7,7.21,-22.23,10.19,-0.09,-1.10,7.97,
4.701,8.76,-22.01,9.70,-0.09,-1.10,7.97,
4.705,8.76,-22.01,9.70,0.14,-0.88,8.12,
4.706,10.32,-21.77,9.24,0.14,-0.88,8.12,
4.71,10.32,-21.77,9.24,0.35,-0.63,8.23,
4.71,11.73,-21.41,8.76,0.35,-0.63,8.23,
4.714,11.73,-21.41,8.76,0.54,-0.35,8.31,
4.715,12.99,-21.04,8.23,0.54,-0.35,8.31,
4.729,12.99,-21.04,8.23,0.71,-0.04,8.35,
4.73,14.12,-20.71,7.62,0.71,-0.04,8.35,
4.731,14.12,-20.71,7.62,0.84,0.29,8.37,
4.731,15.26,-20.37,7.04,0.84,0.29,8.37,
4.732,16.39,-20.02,6.38,0.84,0.29,8.37,
4.733,16.39,-20.02,6.38,0.94,0.64,8.36,
4.734,16.39,-20.02,6.38,1.01,0.99,8.32,
4.735,17.50,-19.65,5.62,1.01,0.99,8.32,
4.764,18.43,-19.35,4.67,1.01,0.99,8.32,
4.766,18.43,-19.35,4.67,1.03,1.35,8.25,
4.766,18.43,-19.35,4.67,1.01,1.69,8.15,
4.766,18.92,-19.19,3.70,1.01,1.69,8.15,
4.767,18.92,-19.19,3.70,0.95,2.00,8.05,
4.767,19.19,-19.04,2.89,0.95,2.00,8.05,
4.768,19.41,-18.86,2.22,0.95,2.00,8.05,
4.769,19.41,-18.86,2.22,0.85,2.26,7.97,
4.769,19.68,-18.66,1.62,0.85,2.26,7.97,
4.77,19.68,-18.66,1.62,0.71,2.48,7.91,
4.77,19.90,-18.57,1.00,0.71,2.48,7.91,
4.771,19.90,-18.57,1.00,0.56,2.65,7.88,
4.772,20.10,-18.60,0.37,0.56,2.65,7.88,
4.772,20.10,-18.60,0.37,0.40,2.75,7.87,
4.774,20.24,-18.68,-0.25,0.40,2.75,7.87,
4.775,20.24,-18.68,-0.25,0.22,2.78,7.89,
4.778,20.40,-18.81,-0.76,0.22,2.78,7.89,
4.779,20.40,-18.81,-0.76,0.04,2.74,7.95,
4.783,20.40,-18.81,-0.76,-0.15,2.62,8.05,
4.783,20.51,-18.94,-1.22,-0.15,2.62,8.05,
4.788,20.58,-19.03,-1.56,-0.15,2.62,8.05,
4.789,20.58,-19.03,-1.56,-0.35,2.42,8.18,
4.793,20.66,-19.21,-1.80,-0.35,2.42,8.18,
4.794,20.66,-19.21,-1.80,-0.56,2.14,8.35,
4.797,20.97,-19.43,-1.94,-0.56,2.14,8.35,
4.798,20.97,-19.43,-1.94,-0.78,1.81,8.55,
4.803,21.66,-19.72,-1.85,-0.78,1.81,8.55,
4.804,21.66,-19.72,-1.85,-0.99,1.45,8.79,
4.808,22.87,-19.98,-1.45,-0.99,1.45,8.79,
4.809,22.87,-19.98,-1.45,-1.21,1.09,9.06,
4.812,24.48,-20.11,-0.66,-1.21,1.09,9.06,
4.813,24.48,-20.11,-0.66,-1.40,0.76,9.34,
4.849,26.24,-20.07,0.39,-1.40,0.76,9.34,
4.849,26.24,-20.07,0.39,-1.55,0.49,9.60,
4.85,27.97,-19.97,1.32,-1.55,0.49,9.60,
4.851,27.97,-19.97,1.32,-1.66,0.32,9.83,
4.851,29.74,-19.71,2.22,-1.66,0.32,9.83,
4.852,29.74,-19.71,2.22,-1.74,0.23,10.03,
4.852,30.57,-19.21,3.14,-1.74,0.23,10.03,
4.853,30.57,-19.21,3.14,-1.78,0.23,10.18,
4.853,30.67,-18.40,4.16,-1.78,0.23,10.18,
4.854,30.67,-18.40,4.16,-1.80,0.30,10.29,
4.855,30.67,-18.40,4.16,-1.78,0.44,10.34,
4.855,30.80,-17.39,5.01,-1.78,0.44,10.34,
4.856,30.80,-17.39,5.01,-1.75,0.61,10.33,
4.857,30.94,-16.28,5.67,-1.75,0.61,10.33,
4.857,30.94,-16.28,5.67,-1.71,0.80,10.26,
4.858,31.10,-14.88,6.04,-1.71,0.80,10.26,
4.858,31.10,-14.88,6.04,-1.67,0.99,10.15,
4.859,31.27,-13.30,6.34,-1.67,0.99,10.15,
4.867,31.27,-13.30,6.34,-1.63,1.15,9.97,
4.868,31.47,-11.56,6.67,-1.63,1.15,9.97,
4.868,31.47,-11.56,6.67,-1.59,1.28,9.73,
4.869,31.67,-9.73,7.07,-1.59,1.28,9.73,
4.894,31.67,-9.73,7.07,-1.54,1.37,9.43,
4.896,31.88,-7.69,7.49,-1.54,1.37,9.43,
4.896,31.88,-7.69,7.49,-1.48,1.39,9.08,
4.896,32.09,-5.59,7.94,-1.48,1.39,9.08,
4.897,32.09,-5.59,7.94,-1.39,1.36,8.67,
4.897,32.31,-3.64,8.43,-1.39,1.36,8.67,
4.898,32.31,-3.64,8.43,-1.28,1.32,8.23,
4.898,32.52,-1.82,8.86,-1.28,1.32,8.23,
4.898,32.73,-0.07,9.34,-1.28,1.32,8.23,
4.899,32.73,-0.07,9.34,-1.13,1.27,7.79,
4.899,31.34,1.51,9.83,-1.13,1.27,7.79,
4.9,31.34,1.51,9.83,-0.94,1.22,7.37,
4.9,31.34,1.51,9.83,-0.70,1.19,6.99,
4.9,29.62,2.91,10.27,-0.70,1.19,6.99,
4.916,27.78,4.12,10.69,-0.70,1.19,6.99,
4.917,27.78,4.12,10.69,-0.42,1.19,6.65,
4.917,27.78,4.12,10.69,-0.07,1.22,6.38,
4.918,25.90,4.81,11.05,-0.07,1.22,6.38,
4.918,24.27,5.68,11.29,-0.07,1.22,6.38,
4.919,24.27,5.68,11.29,0.32,1.25,6.19,
4.924,23.49,6.54,11.04,0.32,1.25,6.19,
4.925,23.49,6.54,11.04,0.77,1.30,6.06,
4.926,23.14,7.29,10.23,0.77,1.30,6.06,
4.926,23.14,7.29,10.23,1.25,1.36,5.97,
4.929,23.14,7.29,10.23,1.72,1.42,5.88,
4.93,23.01,7.82,9.01,1.72,1.42,5.88,
4.934,23.10,8.11,7.38,1.72,1.42,5.88,
4.935,23.10,8.11,7.38,2.16,1.45,5.77,
4.942,23.33,8.25,5.54,2.16,1.45,5.77,
4.944,23.33,8.25,5.54,2.53,1.45,5.61,
4.945,23.33,8.25,5.54,2.83,1.41,5.39,
4.945,23.55,8.34,3.79,2.83,1.41,5.39,
4.948,23.55,8.34,3.79,3.05,1.36,5.13,
4.949,23.68,8.37,2.06,3.05,1.36,5.13,
4.965,23.72,8.49,0.41,3.05,1.36,5.13,
4.966,23.72,8.49,0.41,3.19,1.30,4.81,
4.966,23.58,8.72,-1.11,3.19,1.30,4.81,
4.967,23.58,8.72,-1.11,3.25,1.23,4.47,
4.967,23.16,8.93,-2.51,3.25,1.23,4.47,
4.967,23.16,8.93,-2.51,3.25,1.15,4.09,
4.968,22.42,9.09,-3.77,3.25,1.15,4.09,
4.968,22.42,9.09,-3.77,3.20,1.05,3.70,
4.974,21.33,9.22,-4.90,3.20,1.05,3.70,
4.975,21.33,9.22,-4.90,3.09,0.94,3.32,
4.978,20.04,9.33,-5.96,3.09,0.94,3.32,
4.979,20.04,9.33,-5.96,2.93,0.84,2.96,
4.982,18.72,9.34,-6.94,2.93,0.84,2.96,
4.983,18.72,9.34,-6.94,2.70,0.75,2.65,
4.988,17.49,9.25,-7.84,2.70,0.75,2.65,
4.989,17.49,9.25,-7.84,2.42,0.68,2.38,
4.993,16.37,9.15,-8.65,2.42,0.68,2.38,
4.994,16.37,9.15,-8.65,2.08,0.62,2.16,
4.998,16.37,9.15,-8.65,1.69,0.59,1.98,
4.998,15.33,9.06,-9.28,1.69,0.59,1.98,
5.003,14.39,8.89,-9.79,1.69,0.59,1.98,
5.004,14.39,8.89,-9.79,1.26,0.59,1.85,
5.008,14.39,8.89,-9.79,0.80,0.63,1.76,
5.009,13.55,8.78,-10.06,0.80,0.63,1.76,
5.012,12.90,8.70,-10.05,0.80,0.63,1.76,
5.013,12.90,8.70,-10.05,0.31,0.70,1.70,
5.018,12.44,8.63,-9.73,0.31,0.70,1.70,
5.019,12.44,8.63,-9.73,-0.19,0.81,1.68,
5.022,12.44,8.63,-9.73,-0.68,0.93,1.67,
5.023,12.19,8.58,-9.22,-0.68,0.93,1.67,
5.027,12.19,8.58,-9.22,-1.13,1.07,1.68,
5.028,12.14,8.51,-8.48,-1.13,1.07,1.68,
5.032,12.14,8.51,-8.48,-1.55,1.20,1.69,
5.033,12.15,8.54,-7.64,-1.55,1.20,1.69,
5.038,12.24,8.68,-6.72,-1.55,1.20,1.69,
5.039,12.24,8.68,-6.72,-1.92,1.34,1.70,
5.042,12.36,8.94,-5.80,-1.92,1.34,1.70,
5.043,12.36,8.94,-5.80,-2.24,1.47,1.71,
5.047,12.55,9.16,-5.00,-2.24,1.47,1.71,
5.048,12.55,9.16,-5.00,-2.51,1.60,1.70,
5.052,12.55,9.16,-5.00,-2.73,1.71,1.68,
5.053,12.57,9.35,-4.34,-2.73,1.71,1.68,
5.065,12.57,9.35,-4.34,-2.91,1.81,1.65,
5.066,12.41,9.64,-3.78,-2.91,1.81,1.65,
5.12,12.41,9.64,-3.78,-3.07,1.88,1.62,
5.121,12.18,10.02,-3.26,-3.07,1.88,1.62,
5.121,12.18,10.02,-3.26,-3.19,1.92,1.59,
5.122,11.93,10.44,-2.84,-3.19,1.92,1.59,
5.123,11.93,10.44,-2.84,-3.30,1.94,1.57,
5.123,11.87,10.84,-2.42,-3.30,1.94,1.57,
5.124,11.87,10.84,-2.42,-3.39,1.93,1.55,
5.125,12.03,11.23,-1.89,-3.39,1.93,1.55,
5.125,12.03,11.23,-1.89,-3.45,1.91,1.53,
5.126,12.37,11.63,-1.22,-3.45,1.91,1.53,
5.127,12.80,12.00,-0.37,-3.45,1.91,1.53,
5.127,12.80,12.00,-0.37,-3.47,1.86,1.49,
5.128,13.34,12.42,0.72,-3.47,1.86,1.49,
5.13,13.34,12.42,0.72,-3.45,1.79,1.44,
5.13,14.08,12.88,1.93,-3.45,1.79,1.44,
5.131,14.08,12.88,1.93,-3.37,1.68,1.36,
5.131,14.08,12.88,1.93,-3.23,1.55,1.23,
5.132,15.77,12.80,3.22,-3.23,1.55,1.23,
5.132,15.77,12.80,3.22,-3.01,1.40,1.01,
5.133,17.20,13.00,2.76,-3.01,1.40,1.01,
5.133,16.89,14.08,5.10,-3.01,1.40,1.01,
5.134,16.89,14.08,5.10,-2.78,1.16,0.72,
5.134,16.89,14.08,5.10,-2.50,1.00,0.44,
5.134,15.57,15.06,6.41,-2.50,1.00,0.44,
5.135,15.57,15.06,6.41,-2.14,0.89,0.24,
5.135,15.57,15.06,6.41,-1.72,0.78,0.09,
5.136,14.94,15.89,7.54,-1.72,0.78,0.09,
5.136,14.68,16.51,8.42,-1.72,0.78,0.09,
5.137,14.68,16.51,8.42,-1.26,0.66,-0.02,
5.137,14.39,16.96,8.99,-1.26,0.66,-0.02,
5.138,14.39,16.96,8.99,-0.77,0.49,-0.10,
5.139,14.50,16.99,9.09,-0.77,0.49,-0.10,
5.139,14.50,16.99,9.09,-0.27,0.30,-0.15,
5.14,14.74,16.80,8.95,-0.27,0.30,-0.15,
5.144,14.74,16.80,8.95,0.23,0.10,-0.20,
5.145,15.18,16.42,8.63,0.23,0.10,-0.20,
5.149,15.18,16.42,8.63,0.71,-0.10,-0.25,
5.149,15.81,15.99,7.97,0.71,-0.10,-0.25,
5.161,15.81,15.99,7.97,1.18,-0.30,-0.33,
5.162,16.50,15.50,7.19,1.18,-0.30,-0.33,
5.162,16.50,15.50,7.19,1.60,-0.49,-0.44,
5.163,17.15,14.97,6.35,1.60,-0.49,-0.44,
5.165,17.15,14.97,6.35,1.99,-0.66,-0.59,
5.168,17.15,14.97,6.35,2.34,-0.82,-0.77,
5.168,17.64,14.40,5.49,2.34,-0.82,-0.77,
5.169,17.95,13.81,4.58,2.34,-0.82,-0.77,
5.187,17.95,13.81,4.58,2.64,-0.98,-0.98,
5.188,17.97,13.19,3.57,2.64,-0.98,-0.98,
5.188,17.97,13.19,3.57,2.88,-1.15,-1.21,
5.188,17.71,12.60,2.45,2.88,-1.15,-1.21,
5.189,17.36,12.01,1.25,2.88,-1.15,-1.21,
5.19,17.36,12.01,1.25,3.05,-1.32,-1.45,
5.19,17.36,12.01,1.25,3.15,-1.50,-1.67,
5.19,16.99,11.44,0.07,3.15,-1.50,-1.67,
5.193,16.62,10.91,-0.97,3.15,-1.50,-1.67,
5.194,16.62,10.91,-0.97,3.17,-1.68,-1.89,
5.198,16.62,10.91,-0.97,3.11,-1.87,-2.10,
5.198,16.30,10.34,-1.87,3.11,-1.87,-2.10,
5.202,16.30,10.34,-1.87,2.98,-2.05,-2.30,
5.203,15.94,9.85,-2.57,2.98,-2.05,-2.30,
5.207,15.94,9.85,-2.57,2.79,-2.20,-2.49,
5.208,15.63,9.29,-3.07,2.79,-2.20,-2.49,
5.212,15.63,9.29,-3.07,2.56,-2.34,-2.67,
5.213,15.41,8.73,-3.30,2.56,-2.34,-2.67,
5.217,15.41,8.73,-3.30,2.28,-2.46,-2.83,
5.218,15.36,8.19,-3.29,2.28,-2.46,-2.83,
5.222,15.49,7.59,-3.16,2.28,-2.46,-2.83,
5.223,15.49,7.59,-3.16,1.98,-2.57,-2.97,
5.227,15.49,7.59,-3.16,1.67,-2.66,-3.11,
5.228,15.81,6.94,-2.82,1.67,-2.66,-3.11,
5.231,16.21,6.21,-2.25,1.67,-2.66,-3.11,
5.232,16.21,6.21,-2.25,1.35,-2.73,-3.25,
5.238,16.68,5.46,-1.52,1.35,-2.73,-3.25,
5.239,16.68,5.46,-1.52,1.04,-2.78,-3.39,
5.242,17.17,4.65,-0.66,1.04,-2.78,-3.39,
5.243,17.17,4.65,-0.66,0.76,-2.80,-3.53,
5.246,17.68,3.82,0.38,0.76,-2.80,-3.53,
5.247,17.68,3.82,0.38,0.50,-2.82,-3.67,
5.251,18.18,2.98,1.38,0.50,-2.82,-3.67,
5.252,18.18,2.98,1.38,0.27,-2.83,-3.82,
5.256,18.64,2.06,2.29,0.27,-2.83,-3.82,
5.257,18.64,2.06,2.29,0.08,-2.82,-3.98,
5.261,19.04,1.06,3.07,0.08,-2.82,-3.98,
5.262,19.04,1.06,3.07,-0.08,-2.80,-4.14,
5.266,19.43,0.07,3.83,-0.08,-2.80,-4.14,
5.267,19.43,0.07,3.83,-0.21,-2.76,-4.30,
5.282,19.77,-0.85,4.61,-0.21,-2.76,-4.30,
5.284,19.77,-0.85,4.61,-0.30,-2.71,-4.45,
5.285,19.77,-0.85,4.61,-0.37,-2.65,-4.60,
5.286,20.14,-1.81,5.28,-0.37,-2.65,-4.60,
5.287,20.47,-2.79,6.10,-0.37,-2.65,-4.60,
5.288,20.47,-2.79,6.10,-0.41,-2.58,-4.75,
5.289,20.47,-2.79,6.10,-0.42,-2.52,-4.91,
5.29,20.83,-3.72,6.89,-0.42,-2.52,-4.91,
5.291,20.83,-3.72,6.89,-0.39,-2.45,-5.07,
5.292,21.24,-4.64,7.53,-0.39,-2.45,-5.07,
5.326,21.24,-4.64,7.53,-0.33,-2.38,-5.23,
5.327,21.65,-5.57,7.93,-0.33,-2.38,-5.23,
5.328,21.65,-5.57,7.93,-0.24,-2.32,-5.40,
5.328,22.18,-6.44,8.18,-0.24,-2.32,-5.40,
5.365,22.18,-6.44,8.18,-0.14,-2.25,-5.58,
5.366,22.67,-7.33,8.33,-0.14,-2.25,-5.58,
5.366,22.67,-7.33,8.33,-0.04,-2.19,-5.76,
5.367,23.03,-8.14,8.38,-0.04,-2.19,-5.76,
5.368,23.25,-9.02,8.29,-0.04,-2.19,-5.76,
5.368,23.25,-9.02,8.29,0.07,-2.13,-5.96,
5.369,23.25,-9.02,8.29,0.18,-2.05,-6.16,
5.369,23.38,-9.92,8.08,0.18,-2.05,-6.16,
5.37,23.38,-9.92,8.08,0.27,-1.95,-6.36,
5.371,23.60,-10.88,7.63,0.27,-1.95,-6.36,
5.372,23.60,-10.88,7.63,0.35,-1.83,-6.56,
5.372,23.77,-11.83,7.12,0.35,-1.83,-6.56,
5.373,23.77,-11.83,7.12,0.39,-1.69,-6.76,
5.374,23.88,-12.72,6.65,0.39,-1.69,-6.76,
5.375,23.88,-12.72,6.65,0.41,-1.54,-6.96,
5.377,24.06,-13.57,6.43,0.41,-1.54,-6.96,
5.378,24.40,-14.56,6.17,0.41,-1.54,-6.96,
5.379,24.40,-14.56,6.17,0.41,-1.38,-7.15,
5.379,24.40,-14.56,6.17,0.40,-1.21,-7.33,
5.379,24.93,-15.66,6.06,0.40,-1.21,-7.33,
5.38,24.93,-15.66,6.06,0.40,-1.03,-7.52,
5.38,25.47,-16.75,6.01,0.40,-1.03,-7.52,
5.381,25.81,-17.83,5.96,0.40,-1.03,-7.52,
5.382,25.81,-17.83,5.96,0.42,-0.86,-7.71,
5.382,25.81,-17.83,5.96,0.45,-0.68,-7.91,
5.383,25.93,-18.91,6.01,0.45,-0.68,-7.91,
5.383,25.93,-18.91,6.01,0.48,-0.52,-8.11,
5.384,25.59,-19.98,5.87,0.48,-0.52,-8.11,
5.384,25.59,-19.98,5.87,0.53,-0.39,-8.29,
5.385,24.81,-20.99,5.74,0.53,-0.39,-8.29,
5.385,24.81,-20.99,5.74,0.57,-0.30,-8.45,
5.386,23.73,-21.80,5.55,0.57,-0.30,-8.45,
5.386,22.59,-22.48,5.53,0.57,-0.30,-8.45,
5.387,22.59,-22.48,5.53,0.60,-0.24,-8.57,
5.389,22.59,-22.48,5.53,0.63,-0.23,-8.64,
5.39,21.50,-22.99,5.63,0.63,-0.23,-8.64,
5.393,21.50,-22.99,5.63,0.66,-0.26,-8.70,
5.393,20.45,-23.47,5.92,0.66,-0.26,-8.70,
5.398,20.45,-23.47,5.92,0.71,-0.33,-8.71,
5.398,19.37,-23.84,6.29,0.71,-0.33,-8.71,
5.402,19.37,-23.84,6.29,0.78,-0.43,-8.70,
5.403,18.24,-24.19,6.75,0.78,-0.43,-8.70,
5.407,16.99,-24.40,7.25,0.78,-0.43,-8.70,
5.408,16.99,-24.40,7.25,0.86,-0.55,-8.64,
5.412,16.99,-24.40,7.25,0.98,-0.66,-8.55,
5.413,15.80,-24.48,7.79,0.98,-0.66,-8.55,
5.417,14.54,-24.45,8.29,0.98,-0.66,-8.55,
5.417,14.54,-24.45,8.29,1.13,-0.76,-8.42,
5.426,13.36,-24.30,8.71,1.13,-0.76,-8.42,
5.428,13.36,-24.30,8.71,1.31,-0.83,-8.27,
5.428,12.28,-24.07,8.99,1.31,-0.83,-8.27,
5.429,12.28,-24.07,8.99,1.51,-0.89,-8.09,
5.432,12.28,-24.07,8.99,1.73,-0.96,-7.90,
5.432,11.11,-23.76,9.14,1.73,-0.96,-7.90,
5.436,11.11,-23.76,9.14,1.95,-1.02,-7.70,
5.437,10.16,-23.49,9.11,1.95,-1.02,-7.70,
5.449,9.41,-23.32,8.95,1.95,-1.02,-7.70,
5.45,9.41,-23.32,8.95,2.16,-1.09,-7.49,
5.451,8.63,-23.05,8.73,2.16,-1.09,-7.49,
5.451,8.63,-23.05,8.73,2.36,-1.16,-7.29,
5.452,7.85,-22.69,8.40,2.36,-1.16,-7.29,
5.452,7.85,-22.69,8.40,2.53,-1.24,-7.09,
5.462,7.85,-22.69,8.40,2.67,-1.32,-6.89,
5.463,7.14,-22.25,8.01,2.67,-1.32,-6.89,
5.463,6.52,-21.80,7.65,2.67,-1.32,-6.89,
5.464,6.52,-21.80,7.65,2.78,-1.39,-6.69,
5.466,5.96,-21.37,7.30,2.78,-1.39,-6.69,
5.466,5.96,-21.37,7.30,2.87,-1.46,-6.48,
5.488,5.59,-20.99,6.97,2.87,-1.46,-6.48,
5.489,5.59,-20.99,6.97,2.92,-1.51,-6.28,
5.49,5.34,-20.59,6.64,2.92,-1.51,-6.28,
5.49,5.34,-20.59,6.64,2.96,-1.54,-6.07,
5.491,5.11,-20.21,6.29,2.96,-1.54,-6.07,
5.491,5.11,-20.21,6.29,2.96,-1.56,-5.88,
5.492,4.91,-19.80,5.87,2.96,-1.56,-5.88,
5.492,4.91,-19.80,5.87,2.94,-1.56,-5.69,
5.493,4.67,-19.36,5.39,2.94,-1.56,-5.69,
5.493,4.67,-19.36,5.39,2.90,-1.54,-5.52,
5.495,4.67,-19.36,5.39,2.82,-1.50,-5.35,
5.496,4.39,-18.87,4.92,2.82,-1.50,-5.35,
5.5,4.05,-18.47,4.40,2.82,-1.50,-5.35,
5.501,4.05,-18.47,4.40,2.70,-1.44,-5.20,
5.505,3.78,-18.06,3.91,2.70,-1.44,-5.20,
5.506,3.78,-18.06,3.91,2.56,-1.37,-5.05,
5.51,3.54,-17.73,3.47,2.56,-1.37,-5.05,
5.51,3.54,-17.73,3.47,2.38,-1.28,-4.90,
5.514,3.39,-17.40,3.18,2.38,-1.28,-4.90,
5.515,3.39,-17.40,3.18,2.17,-1.18,-4.77,
5.519,3.27,-17.07,3.02,2.17,-1.18,-4.77,
5.52,3.27,-17.07,3.02,1.94,-1.07,-4.64,
5.529,3.13,-16.78,2.98,1.94,-1.07,-4.64,
5.53,3.13,-16.78,2.98,1.70,-0.93,-4.52,
5.531,3.13,-16.78,2.98,1.46,-0.79,-4.40,
5.531,3.02,-16.57,2.97,1.46,-0.79,-4.40,
5.534,3.02,-16.57,2.97,1.22,-0.63,-4.30,
5.535,2.97,-16.41,3.08,1.22,-0.63,-4.30,
5.559,2.97,-16.25,3.13,1.22,-0.63,-4.30,
5.561,2.97,-16.25,3.13,1.00,-0.46,-4.20,
5.561,2.97,-16.25,3.13,0.78,-0.29,-4.11,
5.562,3.00,-16.13,3.19,0.78,-0.29,-4.11,
5.605,3.00,-16.13,3.19,0.56,-0.12,-4.03,
5.606,2.95,-16.06,3.26,0.56,-0.12,-4.03,
5.606,2.95,-16.06,3.26,0.36,0.06,-3.97,
5.607,3.26,-16.52,2.13,0.36,0.06,-3.97,
5.607,3.26,-16.52,2.13,0.13,0.20,-3.94,
5.608,2.84,-16.19,3.45,0.13,0.20,-3.94,
5.608,2.53,-16.17,3.78,0.13,0.20,-3.94,
5.609,2.53,-16.17,3.78,-0.06,0.44,-3.90,
5.609,2.53,-16.17,3.78,-0.20,0.64,-3.87,
5.61,2.60,-15.88,4.23,-0.20,0.64,-3.87,
5.611,2.60,-15.88,4.23,-0.32,0.83,-3.85,
5.611,2.63,-15.75,4.60,-0.32,0.83,-3.85,
5.612,2.63,-15.75,4.60,-0.40,1.00,-3.83,
5.612,2.67,-15.75,4.78,-0.40,1.00,-3.83,
5.613,2.67,-15.75,4.78,-0.47,1.14,-3.83,
5.613,2.76,-16.16,4.45,-0.47,1.14,-3.83,
5.614,2.42,-16.36,5.22,-0.47,1.14,-3.83,
5.614,2.42,-16.36,5.22,-0.52,1.27,-3.83,
5.615,2.19,-16.68,5.38,-0.52,1.27,-3.83,
5.615,2.19,-16.68,5.38,-0.53,1.40,-3.84,
5.616,2.19,-16.68,5.38,-0.51,1.50,-3.85,
5.616,1.97,-16.88,5.66,-0.51,1.50,-3.85,
5.617,1.97,-16.88,5.66,-0.46,1.57,-3.85,
5.617,1.63,-17.13,5.47,-0.46,1.57,-3.85,
5.618,0.85,-16.99,6.40,-0.46,1.57,-3.85,
5.618,0.85,-16.99,6.40,-0.40,1.63,-3.84,
5.618,0.85,-16.99,6.40,-0.30,1.70,-3.82,
5.619,-0.14,-17.28,6.32,-0.30,1.70,-3.82,
5.619,-0.14,-17.28,6.32,-0.18,1.72,-3.75,
5.62,-0.96,-17.63,5.67,-0.18,1.72,-3.75,
5.622,-0.96,-17.63,5.67,-0.05,1.71,-3.65,
5.623,-2.26,-17.62,6.05,-0.05,1.71,-3.65,
5.627,-3.87,-17.78,5.81,-0.05,1.71,-3.65,
5.628,-3.87,-17.78,5.81,0.10,1.70,-3.53,
5.632,-3.87,-17.78,5.81,0.27,1.63,-3.35,
5.632,-5.37,-17.90,5.32,0.27,1.63,-3.35,
5.636,-5.37,-17.90,5.32,0.42,1.50,-3.14,
5.637,-6.61,-18.05,4.47,0.42,1.50,-3.14,
5.642,-7.85,-18.29,3.45,0.42,1.50,-3.14,
5.643,-7.85,-18.29,3.45,0.54,1.35,-2.90,
5.646,-8.94,-18.39,2.60,0.54,1.35,-2.90,
5.647,-8.94,-18.39,2.60,0.63,1.15,-2.62,
5.651,-9.91,-18.30,2.31,0.63,1.15,-2.62,
5.651,-9.91,-18.30,2.31,0.68,0.92,-2.29,
5.661,-10.53,-18.16,1.94,0.68,0.92,-2.29,
5.662,-10.53,-18.16,1.94,0.70,0.66,-1.95,
5.662,-10.53,-18.16,1.94,0.71,0.39,-1.59,
5.663,-10.84,-18.05,1.63,0.71,0.39,-1.59,
5.668,-10.84,-18.05,1.63,0.71,0.12,-1.23,
5.669,-10.79,-18.01,1.45,0.71,0.12,-1.23,
5.67,-10.79,-18.01,1.45,0.70,-0.15,-0.87,
5.67,-10.39,-18.07,1.37,0.70,-0.15,-0.87,
5.689,-10.39,-18.07,1.37,0.69,-0.40,-0.54,
5.69,-9.79,-18.10,1.36,0.69,-0.40,-0.54,
5.691,-9.12,-18.08,1.31,0.69,-0.40,-0.54,
5.692,-9.12,-18.08,1.31,0.66,-0.61,-0.25,
5.692,-8.44,-18.01,1.16,0.66,-0.61,-0.25,
5.692,-8.44,-18.01,1.16,0.62,-0.77,0.00,
5.693,-8.44,-18.01,1.16,0.56,-0.88,0.21,
5.693,-7.77,-17.95,0.98,0.56,-0.88,0.21,
5.714,-7.77,-17.95,0.98,0.47,-0.95,0.40,
5.715,-7.25,-17.88,0.79,0.47,-0.95,0.40,
5.716,-6.86,-17.80,0.52,0.47,-0.95,0.40,
5.716,-6.86,-17.80,0.52,0.35,-0.97,0.56,
5.717,-6.86,-17.80,0.52,0.20,-0.94,0.71,
5.717,-6.70,-17.85,0.15,0.20,-0.94,0.71,
5.717,-6.71,-17.93,-0.30,0.20,-0.94,0.71,
5.718,-6.71,-17.93,-0.30,0.02,-0.87,0.85,
5.718,-6.71,-17.93,-0.30,-0.21,-0.77,0.99,
5.718,-6.84,-17.97,-0.71,-0.21,-0.77,0.99,
5.719,-6.84,-17.97,-0.71,-0.47,-0.66,1.14,
5.719,-7.06,-18.04,-0.96,-0.47,-0.66,1.14,
5.74,-7.38,-18.05,-1.11,-0.47,-0.66,1.14,
5.741,-7.38,-18.05,-1.11,-0.75,-0.53,1.31,
5.742,-7.38,-18.05,-1.11,-1.05,-0.41,1.48,
5.742,-7.61,-18.07,-1.17,-1.05,-0.41,1.48,
5.742,-7.61,-18.07,-1.17,-1.36,-0.30,1.68,
5.743,-7.82,-18.17,-1.09,-1.36,-0.30,1.68,
5.744,-7.82,-18.17,-1.09,-1.66,-0.20,1.88,
5.744,-7.91,-18.42,-0.91,-1.66,-0.20,1.88,
5.745,-7.98,-18.68,-0.66,-1.66,-0.20,1.88,
5.745,-7.98,-18.68,-0.66,-1.96,-0.11,2.09,
5.749,-8.03,-18.88,-0.25,-1.96,-0.11,2.09,
5.749,-8.03,-18.88,-0.25,-2.24,-0.03,2.32,
5.753,-8.05,-19.05,0.22,-2.24,-0.03,2.32,
5.754,-8.05,-19.05,0.22,-2.50,0.04,2.55,
5.761,-7.99,-19.22,0.76,-2.50,0.04,2.55,
5.763,-7.99,-19.22,0.76,-2.74,0.08,2.79,
5.763,-7.81,-19.36,1.40,-2.74,0.08,2.79,
5.764,-7.81,-19.36,1.40,-2.95,0.11,3.05,
5.768,-7.81,-19.36,1.40,-3.12,0.12,3.32,
5.769,-7.57,-19.53,2.10,-3.12,0.12,3.32,
5.788,-7.57,-19.53,2.10,-3.25,0.11,3.59,
5.79,-7.15,-19.73,2.73,-3.25,0.11,3.59,
5.79,-7.15,-19.73,2.73,-3.35,0.08,3.87,
5.791,-6.76,-19.93,3.40,-3.35,0.08,3.87,
5.791,-6.76,-19.93,3.40,-3.40,0.03,4.14,
5.792,-6.28,-20.09,4.13,-3.40,0.03,4.14,
5.792,-6.28,-20.09,4.13,-3.42,-0.04,4.43,
5.793,-5.68,-20.27,4.78,-3.42,-0.04,4.43,
5.825,-4.97,-20.44,5.39,-3.42,-0.04,4.43,
5.826,-4.97,-20.44,5.39,-3.39,-0.12,4.71,
5.826,-4.97,-20.44,5.39,-3.33,-0.22,5.00,
5.827,-4.18,-20.62,5.95,-3.33,-0.22,5.00,
5.827,-4.18,-20.62,5.95,-3.23,-0.33,5.28,
5.828,-3.28,-20.76,6.47,-3.23,-0.33,5.28,
5.828,-2.33,-20.91,6.91,-3.23,-0.33,5.28,
5.829,-2.33,-20.91,6.91,-3.10,-0.43,5.57,
5.829,-2.33,-20.91,6.91,-2.94,-0.52,5.85,
5.83,-1.41,-21.04,7.33,-2.94,-0.52,5.85,
5.831,-1.41,-21.04,7.33,-2.75,-0.60,6.13,
5.831,-0.37,-21.19,7.78,-2.75,-0.60,6.13,
5.832,-0.37,-21.19,7.78,-2.54,-0.64,6.42,
5.832,0.73,-21.34,8.18,-2.54,-0.64,6.42,
5.833,0.73,-21.34,8.18,-2.31,-0.63,6.70,
5.834,1.87,-21.46,8.51,-2.31,-0.63,6.70,
5.834,3.02,-21.65,8.69,-2.31,-0.63,6.70,
5.835,3.02,-21.65,8.69,-2.08,-0.58,6.97,
5.837,3.02,-21.65,8.69,-1.84,-0.50,7.22,
5.837,4.33,-21.85,8.74,-1.84,-0.50,7.22,
5.846,4.33,-21.85,8.74,-1.61,-0.38,7.47,
5.847,5.81,-21.96,8.64,-1.61,-0.38,7.47,
5.848,5.81,-21.96,8.64,-1.39,-0.22,7.70,
5.848,7.30,-22.00,8.38,-1.39,-0.22,7.70,
5.851,7.30,-22.00,8.38,-1.19,-0.04,7.91,
5.851,8.72,-22.02,7.88,-1.19,-0.04,7.91,
5.878,8.72,-22.02,7.88,-1.02,0.17,8.09,
5.879,9.99,-22.07,7.16,-1.02,0.17,8.09,
5.879,9.99,-22.07,7.16,-0.91,0.39,8.26,
5.879,11.18,-22.09,6.25,-0.91,0.39,8.26,
5.88,12.21,-22.15,5.23,-0.91,0.39,8.26,
5.88,12.21,-22.15,5.23,-0.85,0.61,8.43,
5.881,13.17,-22.27,4.10,-0.85,0.61,8.43,
5.881,13.17,-22.27,4.10,-0.85,0.82,8.59,
5.882,13.99,-22.45,2.98,-0.85,0.82,8.59,
5.882,13.99,-22.45,2.98,-0.94,1.01,8.75,
5.883,14.70,-22.63,1.98,-0.94,1.01,8.75,
5.883,14.70,-22.63,1.98,-1.09,1.18,8.90,
5.885,14.70,-22.63,1.98,-1.32,1.31,9.05,
5.886,15.36,-22.92,1.20,-1.32,1.31,9.05,
5.896,16.04,-23.30,0.72,-1.32,1.31,9.05,
5.897,16.04,-23.30,0.72,-1.61,1.40,9.20,
5.897,16.04,-23.30,0.72,-1.93,1.47,9.36,
5.898,16.79,-23.72,0.59,-1.93,1.47,9.36,
5.9,16.79,-23.72,0.59,-2.27,1.49,9.51,
5.9,17.66,-24.18,0.71,-2.27,1.49,9.51,
5.905,17.66,-24.18,0.71,-2.60,1.48,9.68,
5.906,18.56,-24.64,1.04,-2.60,1.48,9.68,
5.921,18.56,-24.64,1.04,-2.93,1.42,9.86,
5.922,19.51,-25.09,1.41,-2.93,1.42,9.86,
5.923,20.56,-25.58,1.78,-2.93,1.42,9.86,
5.924,20.56,-25.58,1.78,-3.25,1.34,10.05,
5.925,21.70,-26.11,2.14,-3.25,1.34,10.05,
5.925,21.70,-26.11,2.14,-3.55,1.26,10.26,
5.926,23.07,-26.63,2.62,-3.55,1.26,10.26,
5.926,23.07,-26.63,2.62,-3.86,1.18,10.49,
5.929,24.69,-26.97,3.14,-3.86,1.18,10.49,
5.93,24.69,-26.97,3.14,-4.15,1.12,10.72,
5.934,26.63,-27.03,3.73,-4.15,1.12,10.72,
5.935,26.63,-27.03,3.73,-4.43,1.06,10.95,
5.946,28.90,-26.80,4.46,-4.43,1.06,10.95,
5.947,28.90,-26.80,4.46,-4.72,1.03,11.13,
5.948,28.90,-26.80,4.46,-5.01,1.03,11.23,
5.948,31.23,-26.31,5.32,-5.01,1.03,11.23,
5.949,31.23,-26.31,5.32,-5.28,1.08,11.23,
5.949,31.54,-25.56,6.43,-5.28,1.08,11.23,
5.953,31.54,-25.56,6.43,-5.53,1.18,11.08,
5.954,31.79,-24.48,7.96,-5.53,1.18,11.08,
5.971,31.79,-24.48,7.96,-5.75,1.35,10.79,
5.973,32.06,-23.06,9.87,-5.75,1.35,10.79,
5.973,32.06,-23.06,9.87,-5.91,1.54,10.36,
5.974,32.33,-21.29,12.08,-5.91,1.54,10.36,
5.974,32.33,-21.29,12.08,-6.00,1.73,9.80,
5.975,32.59,-19.25,14.46,-6.00,1.73,9.80,
5.975,32.85,-16.99,16.75,-6.00,1.73,9.80,
5.976,32.85,-16.99,16.75,-6.01,1.88,9.19,
5.978,33.10,-14.69,18.77,-6.01,1.88,9.19,
5.979,33.10,-14.69,18.77,-5.93,1.99,8.55,
5.982,33.10,-14.69,18.77,-5.76,2.07,7.94,
5.983,33.34,-12.46,20.34,-5.76,2.07,7.94,
5.988,33.34,-12.46,20.34,-5.49,2.09,7.38,
5.988,32.25,-10.57,21.53,-5.49,2.09,7.38,
5.997,32.25,-10.57,21.53,-5.16,2.08,6.90,
5.998,29.47,-9.21,22.19,-5.16,2.08,6.90,
5.999,26.76,-8.26,22.65,-5.16,2.08,6.90,
5.999,26.76,-8.26,22.65,-4.75,2.06,6.52,
6.002,24.45,-7.59,22.91,-4.75,2.06,6.52,
6.003,24.45,-7.59,22.91,-4.29,2.03,6.26,
6.022,22.81,-7.04,22.93,-4.29,2.03,6.26,
6.023,22.81,-7.04,22.93,-3.75,1.97,6.10,
6.024,22.81,-7.04,22.93,-3.18,1.88,6.03,
6.024,21.53,-6.47,22.66,-3.18,1.88,6.03,
6.025,20.37,-5.89,22.01,-3.18,1.88,6.03,
6.025,20.37,-5.89,22.01,-2.58,1.74,5.99,
6.026,19.32,-5.47,21.13,-2.58,1.74,5.99,
6.026,19.32,-5.47,21.13,-1.97,1.57,5.99,
6.027,18.48,-5.16,20.15,-1.97,1.57,5.99,
6.027,18.48,-5.16,20.15,-1.37,1.38,6.03,
6.032,18.48,-5.16,20.15,-0.80,1.21,6.11,
6.032,18.18,-5.00,19.10,-0.80,1.21,6.11,
6.062,18.18,-5.00,19.10,-0.24,1.06,6.22,
6.063,18.29,-4.76,17.98,-0.24,1.06,6.22,
6.063,18.86,-4.47,16.73,-0.24,1.06,6.22,
6.064,18.86,-4.47,16.73,0.28,0.88,6.34,
6.064,19.90,-3.94,15.49,0.28,0.88,6.34,
6.065,19.90,-3.94,15.49,0.78,0.69,6.45,
6.065,21.20,-3.21,14.15,0.78,0.69,6.45,
6.066,21.20,-3.21,14.15,1.24,0.49,6.51,
6.066,22.39,-2.26,12.70,1.24,0.49,6.51,
6.067,22.39,-2.26,12.70,1.66,0.30,6.48,
6.067,22.39,-2.26,12.70,2.03,0.14,6.36,
6.067,23.27,-1.21,11.14,2.03,0.14,6.36,
6.068,23.27,-1.21,11.14,2.34,0.01,6.17,
6.068,23.91,-0.02,9.47,2.34,0.01,6.17,
6.07,23.91,-0.02,9.47,2.57,-0.11,5.91,
6.071,24.24,1.26,7.80,2.57,-0.11,5.91,
6.082,24.24,2.52,6.12,2.57,-0.11,5.91,
6.083,24.24,2.52,6.12,2.73,-0.21,5.62,
6.083,24.24,2.52,6.12,2.81,-0.29,5.29,
6.083,23.99,3.58,4.46,2.81,-0.29,5.29,
6.085,23.99,3.58,4.46,2.80,-0.35,4.97,
6.085,23.43,4.44,2.80,2.80,-0.35,4.97,
6.113,23.43,4.44,2.80,2.72,-0.36,4.68,
6.114,22.57,5.13,1.14,2.72,-0.36,4.68,
6.114,21.58,5.72,-0.43,2.72,-0.36,4.68,
6.115,21.58,5.72,-0.43,2.54,-0.32,4.44,
6.115,21.58,5.72,-0.43,2.27,-0.21,4.25,
6.116,20.80,6.27,-1.94,2.27,-0.21,4.25,
6.116,20.32,6.82,-3.21,2.27,-0.21,4.25,
6.116,20.32,6.82,-3.21,1.92,-0.01,4.11,
6.117,20.32,6.82,-3.21,1.50,0.26,4.01,
6.117,20.04,7.31,-4.28,1.50,0.26,4.01,
6.118,19.75,7.70,-5.05,1.50,0.26,4.01,
6.118,19.75,7.70,-5.05,1.02,0.58,3.93,
6.119,19.67,8.15,-5.48,1.02,0.58,3.93,
6.12,19.67,8.15,-5.48,0.50,0.95,3.87,
6.124,19.64,8.53,-5.51,0.50,0.95,3.87,
6.125,19.64,8.53,-5.51,-0.03,1.31,3.81,
6.129,19.70,8.93,-5.16,-0.03,1.31,3.81,
6.13,19.70,8.93,-5.16,-0.57,1.65,3.73,
6.134,19.73,9.32,-4.56,-0.57,1.65,3.73,
6.135,19.73,9.32,-4.56,-1.08,1.94,3.63,
6.139,19.66,9.62,-3.76,-1.08,1.94,3.63,
6.14,19.66,9.62,-3.76,-1.55,2.19,3.51,
6.147,19.47,9.87,-2.82,-1.55,2.19,3.51,
6.149,19.47,9.87,-2.82,-1.97,2.38,3.36,
6.149,19.33,10.00,-1.87,-1.97,2.38,3.36,
6.15,19.33,10.00,-1.87,-2.34,2.51,3.22,
6.153,19.33,10.00,-1.87,-2.65,2.58,3.08,
6.154,19.32,10.22,-0.83,-2.65,2.58,3.08,
6.175,19.32,10.22,-0.83,-2.90,2.59,2.93,
6.176,19.52,10.42,0.42,-2.90,2.59,2.93,
6.176,19.52,10.42,0.42,-3.07,2.56,2.77,
6.177,19.88,10.70,1.92,-3.07,2.56,2.77,
6.177,20.42,11.04,3.66,-3.07,2.56,2.77,
6.178,20.42,11.04,3.66,-3.16,2.49,2.59,
6.178,20.42,11.04,3.66,-3.14,2.38,2.37,
6.179,21.07,11.31,5.33,-3.14,2.38,2.37,
6.179,21.73,11.40,6.79,-3.14,2.38,2.37,
6.18,21.73,11.40,6.79,-3.04,2.22,2.13,
6.183,21.73,11.40,6.79,-2.85,2.02,1.86,
6.183,22.59,10.98,7.78,-2.85,2.02,1.86,
6.187,22.63,11.70,8.75,-2.85,2.02,1.86,
6.188,22.63,11.70,8.75,-2.60,1.77,1.57,
6.195,22.59,12.55,9.61,-2.60,1.77,1.57,
6.195,22.59,12.55,9.61,-2.27,1.54,1.26,
6.197,22.41,13.00,10.34,-2.27,1.54,1.26,
6.198,22.41,13.00,10.34,-1.88,1.34,0.97,
6.202,22.07,13.02,10.72,-1.88,1.34,0.97,
6.203,22.07,13.02,10.72,-1.43,1.15,0.69,
6.208,22.07,13.02,10.72,-0.95,0.96,0.45,
6.209,21.38,12.85,10.74,-0.95,0.96,0.45,
6.212,21.02,12.67,10.52,-0.95,0.96,0.45,
6.213,21.02,12.67,10.52,-0.48,0.73,0.27,
6.216,21.06,12.52,9.98,-0.48,0.73,0.27,
6.217,21.06,12.52,9.98,-0.02,0.48,0.13,
6.221,21.19,12.36,9.31,-0.02,0.48,0.13,
6.222,21.19,12.36,9.31,0.41,0.24,-0.00,
6.227,21.26,12.11,8.71,0.41,0.24,-0.00,
6.228,21.26,12.11,8.71,0.80,0.01,-0.14,
6.232,21.19,11.74,8.17,0.80,0.01,-0.14,
6.232,21.19,11.74,8.17,1.17,-0.22,-0.30,
6.236,21.19,11.74,8.17,1.50,-0.48,-0.47,
6.237,21.03,11.30,7.64,1.50,-0.48,-0.47,
6.251,21.03,11.30,7.64,1.79,-0.75,-0.65,
6.252,20.93,10.89,6.96,1.79,-0.75,-0.65,
6.253,20.93,10.59,6.32,1.79,-0.75,-0.65,
6.254,20.93,10.59,6.32,2.06,-1.04,-0.84,
6.255,20.84,10.29,5.70,2.06,-1.04,-0.84,
6.256,20.84,10.29,5.70,2.30,-1.35,-1.05,
6.256,20.55,9.95,5.09,2.30,-1.35,-1.05,
6.258,20.55,9.95,5.09,2.53,-1.66,-1.28,
6.286,20.55,9.95,5.09,2.72,-1.99,-1.51,
6.287,20.01,9.51,4.48,2.72,-1.99,-1.51,
6.288,20.01,9.51,4.48,2.88,-2.33,-1.74,
6.289,19.28,9.13,3.68,2.88,-2.33,-1.74,
6.289,19.28,9.13,3.68,2.98,-2.66,-1.96,
6.29,18.54,8.70,2.96,2.98,-2.66,-1.96,
6.291,18.54,8.70,2.96,3.04,-2.99,-2.16,
6.291,17.89,8.33,2.24,3.04,-2.99,-2.16,
6.326,17.89,8.33,2.24,3.05,-3.29,-2.35,
6.327,17.30,7.95,1.58,3.05,-3.29,-2.35,
6.328,16.78,7.63,0.95,3.05,-3.29,-2.35,
6.329,16.78,7.63,0.95,3.01,-3.57,-2.53,
6.329,16.78,7.63,0.95,2.92,-3.82,-2.69,
6.33,16.42,7.22,0.51,2.92,-3.82,-2.69,
6.33,16.29,6.75,0.11,2.92,-3.82,-2.69,
6.331,16.29,6.75,0.11,2.79,-4.01,-2.84,
6.331,16.29,6.75,0.11,2.62,-4.16,-2.98,
6.332,16.42,6.17,-0.11,2.62,-4.16,-2.98,
6.332,16.75,5.46,-0.05,2.62,-4.16,-2.98,
6.333,16.75,5.46,-0.05,2.42,-4.25,-3.13,
6.333,16.75,5.46,-0.05,2.21,-4.31,-3.28,
6.334,17.14,4.65,0.24,2.21,-4.31,-3.28,
6.335,17.14,4.65,0.24,2.01,-4.32,-3.43,
6.335,17.57,3.87,0.65,2.01,-4.32,-3.43,
6.336,17.96,3.14,1.13,2.01,-4.32,-3.43,
6.336,17.96,3.14,1.13,1.81,-4.32,-3.58,
6.337,18.43,2.39,1.70,1.81,-4.32,-3.58,
6.338,18.43,2.39,1.70,1.62,-4.30,-3.75,
6.338,18.88,1.63,2.24,1.62,-4.30,-3.75,
6.339,18.88,1.63,2.24,1.44,-4.27,-3.93,
6.339,18.88,1.63,2.24,1.27,-4.26,-4.13,
6.34,19.46,0.77,2.77,1.27,-4.26,-4.13,
6.34,19.95,-0.13,3.24,1.27,-4.26,-4.13,
6.341,19.95,-0.13,3.24,1.12,-4.23,-4.33,
6.343,20.42,-1.13,3.56,1.12,-4.23,-4.33,
6.344,20.42,-1.13,3.56,0.97,-4.21,-4.55,
6.349,20.90,-2.14,3.90,0.97,-4.21,-4.55,
6.349,20.90,-2.14,3.90,0.83,-4.18,-4.76,
6.353,20.90,-2.14,3.90,0.68,-4.13,-4.99,
6.353,21.40,-3.22,4.26,0.68,-4.13,-4.99,
6.363,21.40,-3.22,4.26,0.54,-4.06,-5.23,
6.364,21.87,-4.44,4.46,0.54,-4.06,-5.23,
6.365,21.87,-4.44,4.46,0.38,-3.98,-5.46,
6.365,22.21,-5.68,4.53,0.38,-3.98,-5.46,
6.368,22.21,-5.68,4.53,0.22,-3.86,-5.71,
6.368,22.50,-6.93,4.65,0.22,-3.86,-5.71,
6.372,22.80,-8.15,4.94,0.22,-3.86,-5.71,
6.373,22.80,-8.15,4.94,0.04,-3.72,-5.95,
6.392,22.80,-8.15,4.94,-0.14,-3.56,-6.19,
6.393,23.06,-9.29,5.25,-0.14,-3.56,-6.19,
6.394,23.06,-9.29,5.25,-0.31,-3.37,-6.43,
6.394,23.08,-10.32,5.64,-0.31,-3.37,-6.43,
6.395,23.08,-10.32,5.64,-0.45,-3.16,-6.66,
6.395,22.86,-11.14,6.25,-0.45,-3.16,-6.66,
6.396,22.51,-11.90,6.81,-0.45,-3.16,-6.66,
6.396,22.51,-11.90,6.81,-0.56,-2.95,-6.88,
6.397,22.51,-11.90,6.81,-0.63,-2.74,-7.08,
6.398,22.13,-12.78,6.98,-0.63,-2.74,-7.08,
6.402,22.13,-12.78,6.98,-0.67,-2.53,-7.25,
6.402,21.85,-13.74,7.07,-0.67,-2.53,-7.25,
6.407,21.44,-14.80,7.33,-0.67,-2.53,-7.25,
6.408,21.44,-14.80,7.33,-0.70,-2.35,-7.39,
6.412,21.01,-15.85,7.47,-0.70,-2.35,-7.39,
6.413,21.01,-15.85,7.47,-0.71,-2.17,-7.51,
6.417,21.01,-15.85,7.47,-0.70,-2.00,-7.60,
6.418,20.47,-16.84,7.59,-0.70,-2.00,-7.60,
6.422,19.81,-17.61,7.90,-0.70,-2.00,-7.60,
6.422,19.81,-17.61,7.90,-0.67,-1.84,-7.66,
6.427,19.13,-18.29,8.20,-0.67,-1.84,-7.66,
6.428,19.13,-18.29,8.20,-0.61,-1.69,-7.70,
6.431,18.42,-18.82,8.41,-0.61,-1.69,-7.70,
6.432,18.42,-18.82,8.41,-0.53,-1.58,-7.71,
6.436,17.69,-19.24,8.68,-0.53,-1.58,-7.71,
6.437,17.69,-19.24,8.68,-0.43,-1.51,-7.68,
6.442,17.11,-19.60,8.96,-0.43,-1.51,-7.68,
6.443,17.11,-19.60,8.96,-0.33,-1.48,-7.63,
6.446,16.77,-19.87,9.40,-0.33,-1.48,-7.63,
6.447,16.77,-19.87,9.40,-0.21,-1.49,-7.56,
6.451,16.59,-20.23,9.88,-0.21,-1.49,-7.56,
6.452,16.59,-20.23,9.88,-0.08,-1.52,-7.47,
6.456,16.53,-20.65,10.25,-0.08,-1.52,-7.47,
6.457,16.53,-20.65,10.25,0.07,-1.54,-7.36,
6.462,16.65,-21.03,10.56,0.07,-1.54,-7.36,
6.463,16.65,-21.03,10.56,0.23,-1.54,-7.25,
6.466,16.83,-21.32,10.78,0.23,-1.54,-7.25,
6.467,16.83,-21.32,10.78,0.39,-1.51,-7.16,
6.471,17.00,-21.53,10.82,0.39,-1.51,-7.16,
6.472,17.00,-21.53,10.82,0.57,-1.47,-7.10,
6.483,17.00,-21.53,10.82,0.75,-1.43,-7.06,
6.485,17.14,-21.71,10.83,0.75,-1.43,-7.06,
6.485,17.15,-21.90,10.66,0.75,-1.43,-7.06,
6.486,17.15,-21.90,10.66,0.93,-1.42,-7.06,
6.487,17.15,-21.90,10.66,1.09,-1.43,-7.08,
6.487,17.00,-22.15,10.56,1.09,-1.43,-7.08,
6.517,17.00,-22.15,10.56,1.25,-1.45,-7.12,
6.518,16.68,-22.46,10.34,1.25,-1.45,-7.12,
6.519,16.24,-22.73,10.07,1.25,-1.45,-7.12,
6.52,16.24,-22.73,10.07,1.40,-1.49,-7.18,
6.521,16.24,-22.73,10.07,1.53,-1.57,-7.23,
6.521,15.76,-22.92,9.72,1.53,-1.57,-7.23,
6.522,15.12,-23.11,9.24,1.53,-1.57,-7.23,
6.523,15.12,-23.11,9.24,1.64,-1.66,-7.27,
6.524,14.41,-23.20,8.80,1.64,-1.66,-7.27,
6.525,14.41,-23.20,8.80,1.73,-1.76,-7.32,
6.525,13.66,-23.15,8.36,1.73,-1.76,-7.32,
6.526,13.66,-23.15,8.36,1.77,-1.85,-7.35,
6.527,13.66,-23.15,8.36,1.79,-1.93,-7.38,
6.527,12.86,-23.01,8.12,1.79,-1.93,-7.38,
6.561,12.01,-22.96,7.92,1.79,-1.93,-7.38,
6.561,12.01,-22.96,7.92,1.76,-1.99,-7.39,
6.562,11.04,-22.99,7.79,1.76,-1.99,-7.39,
6.562,11.04,-22.99,7.79,1.72,-2.03,-7.39,
6.563,9.94,-23.14,7.63,1.72,-2.03,-7.39,
6.563,9.94,-23.14,7.63,1.67,-2.04,-7.37,
6.564,8.74,-23.24,7.43,1.67,-2.04,-7.37,
6.565,8.74,-23.24,7.43,1.61,-2.05,-7.31,
6.565,8.74,-23.24,7.43,1.54,-2.06,-7.21,
6.566,7.41,-23.24,7.22,1.54,-2.06,-7.21,
6.566,6.13,-23.10,7.08,1.54,-2.06,-7.21,
6.567,6.13,-23.10,7.08,1.46,-2.07,-7.06,
6.567,5.04,-22.85,6.89,1.46,-2.07,-7.06,
6.568,5.04,-22.85,6.89,1.39,-2.07,-6.88,
6.568,4.23,-22.49,6.88,1.39,-2.07,-6.88,
6.569,4.23,-22.49,6.88,1.30,-2.06,-6.66,
6.569,3.66,-22.05,6.97,1.30,-2.06,-6.66,
6.569,3.66,-22.05,6.97,1.21,-2.05,-6.43,
6.57,3.33,-21.68,7.08,1.21,-2.05,-6.43,
6.57,3.33,-21.68,7.08,1.14,-2.03,-6.20,
6.578,3.11,-21.39,7.27,1.14,-2.03,-6.20,
6.579,3.11,-21.39,7.27,1.07,-2.00,-5.97,
6.58,3.03,-21.07,7.42,1.07,-2.00,-5.97,
6.58,3.03,-21.07,7.42,1.02,-1.95,-5.75,
6.608,3.00,-20.66,7.59,1.02,-1.95,-5.75,
6.609,3.00,-20.66,7.59,0.97,-1.89,-5.54,
6.609,3.03,-20.26,7.75,0.97,-1.89,-5.54,
6.61,3.03,-20.26,7.75,0.93,-1.82,-5.37,
6.61,3.03,-20.26,7.75,0.90,-1.74,-5.22,
6.61,2.99,-19.90,8.01,0.90,-1.74,-5.22,
6.611,2.95,-19.59,8.20,0.90,-1.74,-5.22,
6.611,2.95,-19.59,8.20,0.88,-1.66,-5.10,
6.612,2.89,-19.28,8.37,0.88,-1.66,-5.10,
6.613,2.89,-19.28,8.37,0.88,-1.57,-5.00,
6.613,2.89,-19.28,8.37,0.88,-1.50,-4.93,
6.613,2.84,-19.09,8.41,0.88,-1.50,-4.93,
6.614,2.84,-18.96,8.40,0.88,-1.50,-4.93,
6.614,2.84,-18.96,8.40,0.90,-1.43,-4.86,
6.617,2.71,-18.90,8.32,0.90,-1.43,-4.86,
6.617,2.71,-18.90,8.32,0.91,-1.38,-4.81,
6.621,2.45,-18.92,8.14,0.91,-1.38,-4.81,
6.622,2.45,-18.92,8.14,0.91,-1.32,-4.76,
6.631,2.04,-18.90,7.88,0.91,-1.32,-4.76,
6.632,2.04,-18.90,7.88,0.91,-1.27,-4.71,
6.632,2.04,-18.90,7.88,0.88,-1.20,-4.66,
6.633,1.58,-18.81,7.64,0.88,-1.20,-4.66,
6.636,1.03,-18.70,7.46,0.88,-1.20,-4.66,
6.637,1.03,-18.70,7.46,0.83,-1.14,-4.60,
6.658,1.03,-18.70,7.46,0.76,-1.07,-4.53,
6.659,0.32,-18.64,7.44,0.76,-1.07,-4.53,
6.66,-0.36,-18.59,7.53,0.76,-1.07,-4.53,
6.66,-0.36,-18.59,7.53,0.69,-1.00,-4.45,
6.661,-1.02,-18.55,7.81,0.69,-1.00,-4.45,
6.661,-1.02,-18.55,7.81,0.62,-0.92,-4.35,
6.662,-1.02,-18.55,7.81,0.57,-0.85,-4.25,
6.662,-1.68,-18.51,8.10,0.57,-0.85,-4.25,
6.663,-2.26,-18.52,8.42,0.57,-0.85,-4.25,
6.663,-2.26,-18.52,8.42,0.54,-0.79,-4.15,
6.665,-2.26,-18.52,8.42,0.53,-0.74,-4.04,
6.666,-2.90,-18.53,8.72,0.53,-0.74,-4.04,
6.67,-2.90,-18.53,8.72,0.55,-0.69,-3.92,
6.671,-3.52,-18.59,8.91,0.55,-0.69,-3.92,
6.675,-4.23,-18.67,8.94,0.55,-0.69,-3.92,
6.676,-4.23,-18.67,8.94,0.59,-0.63,-3.81,
6.68,-5.07,-18.80,8.86,0.59,-0.63,-3.81,
6.681,-5.07,-18.80,8.86,0.63,-0.57,-3.70,
6.685,-5.94,-18.90,8.65,0.63,-0.57,-3.70,
6.686,-5.94,-18.90,8.65,0.68,-0.49,-3.60,
6.69,-5.94,-18.90,8.65,0.73,-0.40,-3.49,
6.69,-6.87,-19.00,8.30,0.73,-0.40,-3.49,
6.695,-7.90,-19.10,7.79,0.73,-0.40,-3.49,
6.696,-7.90,-19.10,7.79,0.77,-0.31,-3.38,
6.699,-7.90,-19.10,7.79,0.80,-0.22,-3.24,
6.7,-8.97,-19.21,7.17,0.80,-0.22,-3.24,
6.705,-8.97,-19.21,7.17,0.81,-0.13,-3.08,
6.705,-9.96,-19.31,6.52,0.81,-0.13,-3.08,
6.715,-9.96,-19.31,6.52,0.79,-0.04,-2.88,
6.716,-10.84,-19.34,5.87,0.79,-0.04,-2.88,
6.717,-11.57,-19.34,5.28,0.79,-0.04,-2.88,
6.718,-11.57,-19.34,5.28,0.74,0.04,-2.66,
6.719,-11.57,-19.34,5.28,0.67,0.14,-2.41,
6.72,-12.18,-19.34,4.78,0.67,0.14,-2.41,
6.724,-12.18,-19.34,4.78,0.58,0.22,-2.14,
6.726,-12.66,-19.47,4.34,0.58,0.22,-2.14,
6.748,-12.66,-19.47,4.34,0.47,0.32,-1.84,
6.748,-13.12,-19.60,3.96,0.47,0.32,-1.84,
6.749,-13.54,-19.70,3.62,0.47,0.32,-1.84,
6.75,-13.54,-19.70,3.62,0.36,0.43,-1.53,
6.75,-13.83,-19.61,3.31,0.36,0.43,-1.53,
6.75,-13.83,-19.61,3.31,0.24,0.53,-1.19,
6.751,-13.83,-19.61,3.31,0.10,0.63,-0.85,
6.751,-13.93,-19.37,3.09,0.10,0.63,-0.85,
6.752,-13.93,-19.37,3.09,-0.05,0.69,-0.50,
6.753,-13.85,-19.03,3.00,-0.05,0.69,-0.50,
6.753,-13.65,-18.71,3.07,-0.05,0.69,-0.50,
6.754,-13.65,-18.71,3.07,-0.20,0.74,-0.17,
6.776,-13.45,-18.47,3.28,-0.20,0.74,-0.17,
6.777,-13.45,-18.47,3.28,-0.35,0.78,0.15,
6.778,-13.45,-18.47,3.28,-0.48,0.82,0.46,
6.778,-13.26,-18.23,3.68,-0.48,0.82,0.46,
6.81,-13.26,-18.23,3.68,-0.59,0.88,0.75,
6.811,-13.23,-18.08,4.28,-0.59,0.88,0.75,
6.812,-13.23,-18.08,4.28,-0.67,0.95,1.03,
6.812,-13.33,-17.99,5.02,-0.67,0.95,1.03,
6.813,-13.33,-17.99,5.02,-0.71,1.03,1.31,
6.814,-13.62,-17.91,5.91,-0.71,1.03,1.31,
6.814,-13.62,-17.91,5.91,-0.70,1.10,1.61,
6.815,-13.94,-17.70,6.77,-0.70,1.10,1.61,
6.815,-14.19,-17.48,7.61,-0.70,1.10,1.61,
6.817,-14.19,-17.48,7.61,-0.65,1.15,1.94,
6.817,-14.25,-17.30,8.51,-0.65,1.15,1.94,
6.818,-14.25,-17.30,8.51,-0.56,1.20,2.29,
6.818,-14.25,-17.30,8.51,-0.42,1.24,2.64,
6.819,-13.99,-17.23,9.31,-0.42,1.24,2.64,
6.819,-13.46,-17.28,9.87,-0.42,1.24,2.64,
6.82,-13.46,-17.28,9.87,-0.24,1.26,3.01,
6.82,-13.46,-17.28,9.87,-0.02,1.29,3.36,
6.82,-12.72,-17.34,10.14,-0.02,1.29,3.36,
6.821,-12.72,-17.34,10.14,0.22,1.30,3.72,
6.822,-11.90,-17.33,10.26,0.22,1.30,3.72,
6.822,-11.90,-17.33,10.26,0.47,1.32,4.05,
6.823,-10.83,-17.23,10.20,0.47,1.32,4.05,
6.823,-10.83,-17.23,10.20,0.71,1.33,4.36,
6.824,-9.61,-17.10,10.02,0.71,1.33,4.36,
6.832,-9.61,-17.10,10.02,0.95,1.33,4.64,
6.833,-8.26,-17.00,9.81,0.95,1.33,4.64,
6.833,-8.26,-17.00,9.81,1.18,1.34,4.88,
6.834,-6.96,-16.86,9.55,1.18,1.34,4.88,
6.836,-5.74,-16.68,9.25,1.18,1.34,4.88,
6.837,-5.74,-16.68,9.25,1.39,1.34,5.08,
6.864,-4.68,-16.36,8.83,1.39,1.34,5.08,
6.865,-4.68,-16.36,8.83,1.58,1.35,5.25,
6.865,-3.72,-16.04,8.31,1.58,1.35,5.25,
6.866,-3.72,-16.04,8.31,1.74,1.38,5.38,
6.866,-2.81,-15.68,7.77,1.74,1.38,5.38,
6.866,-2.81,-15.68,7.77,1.87,1.41,5.48,
6.867,-2.81,-15.68,7.77,1.97,1.44,5.55,
6.867,-1.99,-15.37,7.19,1.97,1.44,5.55,
6.868,-1.99,-15.37,7.19,2.02,1.46,5.59,
6.868,-1.28,-15.08,6.57,2.02,1.46,5.59,
6.868,-1.28,-15.08,6.57,2.06,1.47,5.61,
6.869,-0.65,-14.81,6.09,2.06,1.47,5.61,
6.87,-0.13,-14.54,5.60,2.06,1.47,5.61,
6.871,-0.13,-14.54,5.60,2.06,1.45,5.60,
6.891,-0.13,-14.54,5.60,2.04,1.44,5.59,
6.892,0.35,-14.33,5.10,2.04,1.44,5.59,
6.893,0.79,-14.30,4.61,2.04,1.44,5.59,
6.894,0.79,-14.30,4.61,2.00,1.44,5.57,
6.894,1.16,-14.32,4.02,2.00,1.44,5.57,
6.895,1.16,-14.32,4.02,1.95,1.45,5.56,
6.895,1.59,-14.40,3.48,1.95,1.45,5.56,
6.896,1.59,-14.40,3.48,1.87,1.49,5.56,
6.896,1.59,-14.40,3.48,1.77,1.53,5.56,
6.896,2.00,-14.50,3.02,1.77,1.53,5.56,
6.9,2.40,-14.64,2.54,1.77,1.53,5.56,
6.9,2.40,-14.64,2.54,1.64,1.57,5.55,
6.905,2.81,-14.82,2.19,1.64,1.57,5.55,
6.905,2.81,-14.82,2.19,1.50,1.60,5.55,
6.909,3.21,-15.07,1.94,1.50,1.60,5.55,
6.911,3.21,-15.07,1.94,1.34,1.63,5.53,
6.914,3.66,-15.36,1.68,1.34,1.63,5.53,
6.915,3.66,-15.36,1.68,1.17,1.66,5.53,
6.919,4.08,-15.75,1.42,1.17,1.66,5.53,
6.919,4.08,-15.75,1.42,1.00,1.70,5.53,
6.924,4.55,-16.15,1.14,1.00,1.70,5.53,
6.925,4.55,-16.15,1.14,0.81,1.76,5.54,
6.932,4.89,-16.50,0.87,0.81,1.76,5.54,
6.933,4.89,-16.50,0.87,0.62,1.85,5.57,
6.934,4.89,-16.50,0.87,0.42,1.98,5.60,
6.934,5.14,-16.79,0.65,0.42,1.98,5.60,
6.939,5.39,-17.00,0.43,0.42,1.98,5.60,
6.939,5.39,-17.00,0.43,0.19,2.13,5.66,
6.957,5.39,-17.00,0.43,-0.05,2.27,5.73,
6.958,5.69,-17.20,0.32,-0.05,2.27,5.73,
6.959,5.69,-17.20,0.32,-0.31,2.38,5.82,
6.959,5.89,-17.40,0.31,-0.31,2.38,5.82,
6.96,5.89,-17.40,0.31,-0.58,2.48,5.91,
6.96,6.07,-17.67,0.60,-0.58,2.48,5.91,
6.961,6.07,-17.67,0.60,-0.85,2.56,6.02,
6.961,6.28,-18.04,1.00,-0.85,2.56,6.02,
6.965,6.28,-18.04,1.00,-1.10,2.62,6.15,
6.966,6.61,-18.44,1.44,-1.10,2.62,6.15,
6.968,7.04,-18.80,2.02,-1.10,2.62,6.15,
6.969,7.04,-18.80,2.02,-1.34,2.67,6.29,
6.973,7.04,-18.80,2.02,-1.56,2.72,6.46,
6.973,7.48,-19.24,2.82,-1.56,2.72,6.46,
6.978,7.48,-19.24,2.82,-1.75,2.78,6.64,
6.979,8.12,-19.70,3.81,-1.75,2.78,6.64,
6.983,8.12,-19.70,3.81,-1.89,2.84,6.82,
6.983,8.86,-20.22,4.90,-1.89,2.84,6.82,
6.988,8.86,-20.22,4.90,-1.97,2.91,7.01,
6.988,9.69,-20.78,6.02,-1.97,2.91,7.01,
6.993,9.69,-20.78,6.02,-2.00,2.99,7.22,
6.994,10.56,-21.21,7.14,-2.00,2.99,7.22,
6.997,10.56,-21.21,7.14,-1.96,3.07,7.42,
6.998,11.51,-21.54,8.05,-1.96,3.07,7.42,
7.002,11.51,-21.54,8.05,-1.87,3.16,7.62,
7.003,12.43,-21.70,8.84,-1.87,3.16,7.62,
7.007,12.43,-21.70,8.84,-1.74,3.25,7.81,
7.008,13.46,-21.86,9.41,-1.74,3.25,7.81,
7.058,13.46,-21.86,9.41,-1.56,3.34,8.00,
7.059,14.53,-22.05,9.80,-1.56,3.34,8.00,
7.06,15.49,-22.21,10.06,-1.56,3.34,8.00,
7.061,15.49,-22.21,10.06,-1.37,3.43,8.17,
7.061,15.49,-22.21,10.06,-1.17,3.53,8.33,
7.062,16.27,-22.17,10.31,-1.17,3.53,8.33,
7.063,16.27,-22.17,10.31,-0.95,3.63,8.49,
7.064,16.83,-22.02,10.67,-0.95,3.63,8.49,
7.064,16.83,-22.02,10.67,-0.72,3.70,8.65,
7.065,17.38,-21.73,11.10,-0.72,3.70,8.65,
7.066,18.20,-21.38,11.44,-0.72,3.70,8.65,
7.068,18.20,-21.38,11.44,-0.46,3.74,8.80,
7.068,19.30,-21.15,11.65,-0.46,3.74,8.80,
7.069,19.30,-21.15,11.65,-0.15,3.76,8.94,
7.07,19.30,-21.15,11.65,0.19,3.74,9.04,
7.071,20.36,-21.09,11.76,0.19,3.74,9.04,
7.071,20.36,-21.09,11.76,0.56,3.70,9.12,
7.072,21.35,-21.02,11.90,0.56,3.70,9.12,
7.072,22.26,-20.85,11.85,0.56,3.70,9.12,
7.073,22.26,-20.85,11.85,0.97,3.64,9.18,
7.074,22.26,-20.85,11.85,1.39,3.56,9.22,
7.074,23.07,-20.25,11.69,1.39,3.56,9.22,
7.075,23.07,-20.25,11.69,1.84,3.46,9.23,
7.076,23.95,-19.47,11.46,1.84,3.46,9.23,
7.076,24.88,-18.72,11.23,1.84,3.46,9.23,
7.077,24.88,-18.72,11.23,2.31,3.33,9.19,
7.078,24.88,-18.72,11.23,2.80,3.17,9.11,
7.078,25.89,-18.03,10.82,2.80,3.17,9.11,
7.088,25.89,-18.03,10.82,3.31,3.01,8.99,
7.089,26.73,-17.44,10.12,3.31,3.01,8.99,
7.09,26.73,-17.44,10.12,3.82,2.84,8.82,
7.09,27.20,-16.72,9.11,3.82,2.84,8.82,
7.091,27.20,-16.72,9.11,4.31,2.68,8.62,
7.092,27.32,-15.76,7.67,4.31,2.68,8.62,
7.125,27.32,-15.76,7.67,4.74,2.55,8.41,
7.126,27.20,-14.63,5.92,4.74,2.55,8.41,
7.127,27.20,-14.63,5.92,5.08,2.43,8.19,
7.127,27.05,-13.41,3.98,5.08,2.43,8.19,
7.128,27.05,-13.41,3.98,5.33,2.34,7.96,
7.128,26.82,-12.27,1.98,5.33,2.34,7.96,
7.129,26.82,-12.27,1.98,5.47,2.28,7.73,
7.13,26.44,-10.94,-0.12,5.47,2.28,7.73,
7.13,26.00,-9.53,-2.27,5.47,2.28,7.73,
7.131,26.00,-9.53,-2.27,5.47,2.28,7.50,
7.131,25.51,-8.05,-4.29,5.47,2.28,7.50,
