
time,ax,ay,az,wx,wy,wz,
0.002,-0.83,-0.96,2.45,1.42,-0.99,-0.67,
0.002,-0.83,-0.96,2.45,1.53,-1.19,-0.71,
0.003,-0.83,-0.96,2.45,1.64,-1.38,-0.75,
0.004,-0.82,-1.25,2.30,1.64,-1.38,-0.75,
0.009,-0.82,-1.25,2.30,1.73,-1.55,-0.79,
0.01,-0.88,-1.56,2.26,1.73,-1.55,-0.79,
0.013,-0.91,-1.64,2.16,1.73,-1.55,-0.79,
0.013,-0.91,-1.64,2.16,1.80,-1.70,-0.83,
0.018,-0.90,-1.73,2.09,1.80,-1.70,-0.83,
0.018,-0.90,-1.73,2.09,1.85,-1.82,-0.87,
0.023,-0.74,-1.86,2.19,1.85,-1.82,-0.87,
0.024,-0.74,-1.86,2.19,1.89,-1.91,-0.91,
0.027,-0.87,-1.91,2.38,1.89,-1.91,-0.91,
0.028,-0.87,-1.91,2.38,1.92,-1.97,-0.96,
0.032,-1.18,-1.92,2.46,1.92,-1.97,-0.96,
0.033,-1.18,-1.92,2.46,1.95,-2.01,-1.00,
0.037,-1.31,-1.96,2.45,1.95,-2.01,-1.00,
0.037,-1.31,-1.96,2.45,1.98,-2.01,-1.04,
0.041,-1.18,-2.11,2.36,1.98,-2.01,-1.04,
0.042,-1.18,-2.11,2.36,2.00,-1.99,-1.07,
0.047,-1.18,-2.11,2.36,2.01,-1.96,-1.11,
0.048,-0.99,-2.30,2.26,2.01,-1.96,-1.11,
0.052,-0.99,-2.30,2.26,2.00,-1.91,-1.15,
0.052,-0.96,-2.42,2.03,2.00,-1.91,-1.15,
0.066,-0.96,-2.42,2.03,1.96,-1.82,-1.18,
0.067,-1.09,-2.54,1.72,1.96,-1.82,-1.18,
0.068,-1.09,-2.54,1.72,1.90,-1.70,-1.21,
0.069,-1.35,-2.55,1.33,1.90,-1.70,-1.21,
0.07,-1.35,-2.55,1.33,1.81,-1.56,-1.22,
0.07,-1.63,-2.50,0.99,1.81,-1.56,-1.22,
0.074,-1.63,-2.50,0.99,1.69,-1.40,-1.22,
0.075,-1.81,-2.47,0.79,1.69,-1.40,-1.22,
0.077,-1.89,-2.53,0.66,1.69,-1.40,-1.22,
0.077,-1.89,-2.53,0.66,1.56,-1.22,-1.21,
0.083,-1.92,-2.60,0.65,1.56,-1.22,-1.21,
0.084,-1.92,-2.60,0.65,1.41,-1.05,-1.19,
0.085,-1.92,-2.60,0.65,1.26,-0.88,-1.17,
0.086,-1.75,-2.71,0.74,1.26,-0.88,-1.17,
0.108,-1.75,-2.71,0.74,1.12,-0.72,-1.14,
0.109,-1.54,-2.75,0.88,1.12,-0.72,-1.14,
0.111,-1.54,-2.75,0.88,0.98,-0.59,-1.13,
0.112,-1.50,-2.71,1.01,0.98,-0.59,-1.13,
0.113,-1.50,-2.71,1.01,0.84,-0.46,-1.12,
0.113,-1.45,-2.66,1.10,0.84,-0.46,-1.12,
0.114,-1.38,-2.67,1.29,0.84,-0.46,-1.12,
0.114,-1.38,-2.67,1.29,0.71,-0.34,-1.12,
0.115,-1.38,-2.67,1.29,0.59,-0.23,-1.12,
0.115,-1.35,-2.77,1.50,0.59,-0.23,-1.12,
0.115,-1.35,-2.77,1.50,0.47,-0.13,-1.12,
0.116,-1.29,-2.86,1.79,0.47,-0.13,-1.12,
0.123,-1.29,-2.86,1.79,0.38,-0.04,-1.11,
0.123,-1.19,-3.01,2.16,0.38,-0.04,-1.11,
0.136,-1.19,-3.01,2.16,0.30,0.03,-1.11,
0.137,-1.11,-3.15,2.53,0.30,0.03,-1.11,
0.137,-1.11,-3.15,2.53,0.25,0.08,-1.11,
0.137,-1.12,-3.16,2.87,0.25,0.08,-1.11,
0.138,-1.12,-3.16,2.87,0.23,0.11,-1.11,
0.138,-1.16,-3.16,3.09,0.23,0.11,-1.11,
0.141,-1.16,-3.16,3.09,0.22,0.10,-1.11,
0.141,-1.12,-3.17,3.42,0.22,0.10,-1.11,
0.145,-1.12,-3.17,3.42,0.24,0.08,-1.12,
0.145,-1.04,-3.18,3.71,0.24,0.08,-1.12,
0.149,-1.04,-3.18,3.71,0.27,0.04,-1.12,
0.15,-0.80,-3.23,3.95,0.27,0.04,-1.12,
0.154,-0.80,-3.23,3.95,0.32,-0.01,-1.14,
0.155,-0.55,-3.25,4.14,0.32,-0.01,-1.14,
0.159,-0.55,-3.25,4.14,0.39,-0.07,-1.17,
0.16,-0.43,-3.25,4.24,0.39,-0.07,-1.17,
0.164,-0.48,-3.23,4.22,0.39,-0.07,-1.17,
0.165,-0.48,-3.23,4.22,0.48,-0.14,-1.20,
0.168,-0.48,-3.17,4.18,0.48,-0.14,-1.20,
0.169,-0.48,-3.17,4.18,0.56,-0.22,-1.22,
0.181,-0.40,-3.09,4.11,0.56,-0.22,-1.22,
0.182,-0.40,-3.09,4.11,0.64,-0.29,-1.24,
0.183,-0.27,-3.00,3.95,0.64,-0.29,-1.24,
0.183,-0.27,-3.00,3.95,0.72,-0.36,-1.26,
0.184,-0.33,-3.02,3.76,0.72,-0.36,-1.26,
0.184,-0.33,-3.02,3.76,0.78,-0.42,-1.28,
0.188,-0.42,-3.00,3.63,0.78,-0.42,-1.28,
0.189,-0.42,-3.00,3.63,0.83,-0.46,-1.29,
0.195,-0.42,-3.00,3.63,0.87,-0.48,-1.29,
0.196,-0.44,-3.03,3.49,0.87,-0.48,-1.29,
0.198,-0.44,-3.03,3.49,0.89,-0.46,-1.29,
0.199,-0.44,-3.12,3.33,0.89,-0.46,-1.29,
0.203,-0.44,-3.12,3.33,0.90,-0.43,-1.27,
0.204,-0.51,-3.12,3.17,0.90,-0.43,-1.27,
0.224,-0.51,-3.12,3.17,0.89,-0.38,-1.25,
0.225,-0.71,-3.16,2.98,0.89,-0.38,-1.25,
0.225,-0.98,-3.12,2.84,0.89,-0.38,-1.25,
0.226,-0.98,-3.12,2.84,0.88,-0.31,-1.21,
0.226,-1.20,-3.07,2.63,0.88,-0.31,-1.21,
0.227,-1.20,-3.07,2.63,0.84,-0.23,-1.16,
0.228,-1.20,-3.07,2.63,0.80,-0.15,-1.10,
0.228,-1.32,-2.99,2.49,0.80,-0.15,-1.10,
0.229,-1.43,-2.91,2.37,0.80,-0.15,-1.10,
0.229,-1.43,-2.91,2.37,0.74,-0.06,-1.04,
0.232,-1.50,-2.81,2.24,0.74,-0.06,-1.04,
0.233,-1.50,-2.81,2.24,0.67,0.02,-0.98,
0.237,-1.50,-2.81,2.24,0.59,0.10,-0.91,
0.238,-1.57,-2.69,2.15,0.59,0.10,-0.91,
0.248,-1.57,-2.69,2.15,0.50,0.18,-0.84,
0.249,-1.59,-2.52,2.05,0.50,0.18,-0.84,
0.249,-1.57,-2.34,2.06,0.50,0.18,-0.84,
0.25,-1.57,-2.34,2.06,0.41,0.26,-0.78,
0.252,-1.57,-2.34,2.06,0.31,0.34,-0.72,
0.252,-1.49,-2.16,2.11,0.31,0.34,-0.72,
0.269,-1.49,-2.16,2.11,0.22,0.41,-0.67,
0.27,-1.25,-2.05,2.23,0.22,0.41,-0.67,
0.271,-0.92,-1.91,2.51,0.22,0.41,-0.67,
0.271,-0.92,-1.91,2.51,0.14,0.47,-0.64,
0.272,-0.92,-1.91,2.51,0.08,0.52,-0.62,
0.272,-0.59,-1.86,2.74,0.08,0.52,-0.62,
0.273,-0.59,-1.86,2.74,0.04,0.55,-0.62,
0.273,-0.33,-1.81,2.91,0.04,0.55,-0.62,
0.286,-0.33,-1.81,2.91,0.02,0.56,-0.63,
0.287,-0.15,-1.73,2.99,0.02,0.56,-0.63,
0.287,-0.15,-1.73,2.99,0.01,0.57,-0.65,
0.288,-0.03,-1.60,3.02,0.01,0.57,-0.65,
0.288,0.06,-1.54,2.98,0.01,0.57,-0.65,
0.289,0.06,-1.54,2.98,0.01,0.56,-0.68,
0.323,0.11,-1.52,2.85,0.01,0.56,-0.68,
0.324,0.11,-1.52,2.85,0.01,0.53,-0.71,
0.325,0.11,-1.52,2.85,0.00,0.49,-0.74,
0.325,0.23,-1.55,2.68,0.00,0.49,-0.74,
0.325,0.37,-1.63,2.50,0.00,0.49,-0.74,
0.326,0.37,-1.63,2.50,-0.02,0.43,-0.77,
0.326,0.37,-1.63,2.50,-0.05,0.37,-0.81,
0.327,0.51,-1.71,2.32,-0.05,0.37,-0.81,
0.327,0.52,-1.72,2.12,-0.05,0.37,-0.81,
0.328,0.52,-1.72,2.12,-0.10,0.31,-0.85,
0.328,0.47,-1.68,1.96,-0.10,0.31,-0.85,
0.329,0.47,-1.68,1.96,-0.18,0.28,-0.89,
0.329,0.47,-1.68,1.96,-0.27,0.26,-0.92,
0.33,0.39,-1.63,1.82,-0.27,0.26,-0.92,
0.33,0.39,-1.63,1.82,-0.39,0.27,-0.95,
0.331,0.33,-1.58,1.70,-0.39,0.27,-0.95,
0.331,0.33,-1.58,1.70,-0.53,0.30,-0.98,
0.331,0.30,-1.67,1.72,-0.53,0.30,-0.98,
0.337,0.30,-1.67,1.72,-0.68,0.34,-1.00,
0.338,0.26,-1.74,1.86,-0.68,0.34,-1.00,
0.351,0.26,-1.74,1.86,-0.84,0.40,-1.01,
0.352,0.28,-1.86,2.08,-0.84,0.40,-1.01,
0.352,0.28,-1.86,2.08,-0.99,0.46,-1.01,
0.353,0.28,-1.98,2.38,-0.99,0.46,-1.01,
0.353,0.28,-1.98,2.38,-1.14,0.51,-1.01,
0.354,0.28,-2.12,2.69,-1.14,0.51,-1.01,
0.354,0.28,-2.12,2.69,-1.29,0.56,-1.02,
0.355,0.31,-2.33,2.83,-1.29,0.56,-1.02,
0.366,0.31,-2.33,2.83,-1.44,0.58,-1.02,
0.366,0.41,-2.47,2.86,-1.44,0.58,-1.02,
0.407,0.50,-2.63,2.82,-1.44,0.58,-1.02,
0.408,0.50,-2.63,2.82,-1.59,0.59,-1.04,
0.408,0.75,-2.86,2.60,-1.59,0.59,-1.04,
0.409,0.75,-2.86,2.60,-1.77,0.57,-1.06,
0.409,0.75,-2.86,2.60,-1.96,0.52,-1.09,
0.41,1.28,-3.35,2.24,-1.96,0.52,-1.09,
0.41,2.00,-4.01,1.89,-1.96,0.52,-1.09,
0.411,2.00,-4.01,1.89,-2.18,0.45,-1.15,
0.411,2.00,-4.01,1.89,-2.43,0.38,-1.25,
0.412,2.62,-4.86,1.70,-2.43,0.38,-1.25,
0.412,2.62,-4.86,1.70,-2.71,0.33,-1.37,
0.413,3.12,-5.64,1.79,-2.71,0.33,-1.37,
0.413,3.12,-5.64,1.79,-2.99,0.30,-1.51,
0.414,3.54,-6.47,2.13,-2.99,0.30,-1.51,
0.414,3.54,-6.47,2.13,-3.26,0.27,-1.67,
0.415,4.02,-7.28,2.70,-3.26,0.27,-1.67,
0.415,4.66,-8.08,3.54,-3.26,0.27,-1.67,
0.415,4.66,-8.08,3.54,-3.50,0.22,-1.84,
0.416,4.66,-8.08,3.54,-3.68,0.13,-2.03,
0.416,5.40,-8.92,4.47,-3.68,0.13,-2.03,
0.417,5.40,-8.92,4.47,-3.80,-0.00,-2.24,
0.417,5.80,-9.76,5.41,-3.80,-0.00,-2.24,
0.418,5.80,-9.76,5.41,-3.85,-0.16,-2.43,
0.418,5.58,-10.48,6.37,-3.85,-0.16,-2.43,
0.433,5.58,-10.48,6.37,-3.86,-0.33,-2.57,
0.433,4.89,-11.04,7.34,-3.86,-0.33,-2.57,
0.434,3.95,-11.42,8.30,-3.86,-0.33,-2.57,
0.434,3.95,-11.42,8.30,-3.82,-0.48,-2.63,
0.435,2.79,-11.41,9.33,-3.82,-0.48,-2.63,
0.435,2.79,-11.41,9.33,-3.75,-0.61,-2.60,
0.437,1.50,-11.05,10.19,-3.75,-0.61,-2.60,
0.437,1.50,-11.05,10.19,-3.65,-0.67,-2.48,
0.442,1.50,-11.05,10.19,-3.52,-0.66,-2.29,
0.443,0.24,-10.58,10.79,-3.52,-0.66,-2.29,
0.447,0.24,-10.58,10.79,-3.38,-0.59,-2.03,
0.447,-0.83,-10.09,11.21,-3.38,-0.59,-2.03,
0.451,-0.83,-10.09,11.21,-3.25,-0.50,-1.72,
0.452,-1.80,-9.68,11.33,-3.25,-0.50,-1.72,
0.465,-1.80,-9.68,11.33,-3.13,-0.37,-1.35,
0.466,-2.93,-9.28,11.39,-3.13,-0.37,-1.35,
0.467,-2.93,-9.28,11.39,-3.04,-0.20,-0.92,
0.467,-3.97,-8.80,11.43,-3.04,-0.20,-0.92,
0.467,-3.97,-8.80,11.43,-2.96,-0.01,-0.45,
0.468,-4.93,-8.20,11.51,-2.96,-0.01,-0.45,
0.471,-4.93,-8.20,11.51,-2.89,0.17,0.06,
0.472,-5.92,-7.53,11.41,-2.89,0.17,0.06,
0.476,-6.25,-7.13,11.30,-2.89,0.17,0.06,
0.476,-6.25,-7.13,11.30,-2.80,0.34,0.61,
0.481,-6.25,-7.13,11.30,-2.71,0.46,1.18,
0.482,-6.02,-6.86,11.21,-2.71,0.46,1.18,
0.486,-6.02,-6.86,11.21,-2.62,0.56,1.76,
0.486,-5.41,-6.48,11.17,-2.62,0.56,1.76,
0.498,-5.41,-6.48,11.17,-2.52,0.64,2.32,
0.499,-4.31,-5.84,10.97,-2.52,0.64,2.32,
0.5,-2.74,-4.94,10.57,-2.52,0.64,2.32,
0.5,-2.74,-4.94,10.57,-2.40,0.66,2.83,
0.5,-0.67,-4.03,9.86,-2.40,0.66,2.83,
0.501,-0.67,-4.03,9.86,-2.28,0.63,3.30,
0.505,1.73,-3.13,8.87,-2.28,0.63,3.30,
0.506,1.73,-3.13,8.87,-2.18,0.58,3.68,
0.51,1.73,-3.13,8.87,-2.11,0.54,3.96,
0.511,4.37,-2.29,7.66,-2.11,0.54,3.96,
0.515,4.37,-2.29,7.66,-2.08,0.54,4.14,
0.515,7.05,-1.35,6.41,-2.08,0.54,4.14,
0.52,7.05,-1.35,6.41,-2.11,0.58,4.21,
0.521,9.62,-0.40,4.94,-2.11,0.58,4.21,
0.533,9.62,-0.40,4.94,-2.21,0.68,4.17,
0.533,11.88,0.47,3.41,-2.21,0.68,4.17,
0.534,11.88,0.47,3.41,-2.38,0.82,4.02,
0.534,13.70,1.18,2.18,-2.38,0.82,4.02,
0.535,13.70,1.18,2.18,-2.61,0.99,3.79,
0.535,15.12,1.68,1.62,-2.61,0.99,3.79,
0.539,15.12,1.68,1.62,-2.86,1.17,3.47,
0.54,16.07,1.99,1.90,-2.86,1.17,3.47,
0.548,16.07,1.99,1.90,-3.09,1.29,3.08,
0.548,16.37,2.12,2.87,-3.09,1.29,3.08,
0.549,16.37,2.12,2.87,-3.24,1.35,2.67,
0.549,15.92,2.21,4.25,-3.24,1.35,2.67,
0.554,15.92,2.21,4.25,-3.29,1.29,2.25,
0.554,15.15,2.29,5.66,-3.29,1.29,2.25,
0.567,15.15,2.29,5.66,-3.24,1.14,1.85,
0.569,14.32,2.32,6.63,-3.24,1.14,1.85,
0.569,14.32,2.32,6.63,-3.12,0.92,1.48,
0.569,13.43,2.24,7.24,-3.12,0.92,1.48,
0.57,13.43,2.24,7.24,-2.94,0.65,1.14,
0.57,12.47,2.16,7.73,-2.94,0.65,1.14,
0.577,12.47,2.16,7.73,-2.74,0.40,0.83,
0.578,11.41,2.20,8.03,-2.74,0.40,0.83,
0.579,11.41,2.20,8.03,-2.52,0.19,0.56,
0.579,10.31,2.33,8.08,-2.52,0.19,0.56,
0.583,10.31,2.33,8.08,-2.30,0.02,0.32,
0.584,9.20,2.41,7.66,-2.30,0.02,0.32,
0.588,9.20,2.41,7.66,-2.11,-0.14,0.12,
0.588,8.27,2.48,6.79,-2.11,-0.14,0.12,
0.597,8.27,2.48,6.79,-1.94,-0.32,-0.03,
0.598,7.64,2.47,5.54,-1.94,-0.32,-0.03,
0.599,7.64,2.47,5.54,-1.83,-0.50,-0.16,
0.599,7.26,2.39,4.11,-1.83,-0.50,-0.16,
0.603,7.23,2.39,2.71,-1.83,-0.50,-0.16,
0.604,7.23,2.39,2.71,-1.79,-0.66,-0.26,
0.637,7.51,2.40,1.67,-1.79,-0.66,-0.26,
0.638,7.51,2.40,1.67,-1.83,-0.79,-0.36,
0.638,7.63,2.43,1.03,-1.83,-0.79,-0.36,
0.639,7.63,2.43,1.03,-1.94,-0.85,-0.47,
0.639,7.63,2.43,1.03,-2.10,-0.86,-0.59,
0.64,7.21,2.38,0.77,-2.10,-0.86,-0.59,
0.64,7.21,2.38,0.77,-2.27,-0.80,-0.70,
0.641,7.11,2.07,1.02,-2.27,-0.80,-0.70,
0.641,6.99,1.50,1.76,-2.27,-0.80,-0.70,
0.642,6.99,1.50,1.76,-2.44,-0.70,-0.82,
0.642,6.99,1.50,1.76,-2.57,-0.60,-0.95,
0.643,6.48,0.99,2.76,-2.57,-0.60,-0.95,
0.643,5.73,0.43,3.84,-2.57,-0.60,-0.95,
0.643,5.73,0.43,3.84,-2.63,-0.52,-1.07,
0.644,5.05,-0.29,4.96,-2.63,-0.52,-1.07,
0.644,5.05,-0.29,4.96,-2.62,-0.51,-1.18,
0.65,5.05,-0.29,4.96,-2.52,-0.57,-1.26,
0.651,4.37,-1.22,6.00,-2.52,-0.57,-1.26,
0.652,4.37,-1.22,6.00,-2.35,-0.70,-1.31,
0.652,3.79,-2.09,6.79,-2.35,-0.70,-1.31,
0.658,3.79,-2.09,6.79,-2.10,-0.88,-1.32,
0.659,3.37,-2.84,7.15,-2.10,-0.88,-1.32,
0.662,3.37,-2.84,7.15,-1.83,-1.07,-1.31,
0.663,2.80,-3.52,7.07,-1.83,-1.07,-1.31,
0.666,2.80,-3.52,7.07,-1.56,-1.24,-1.26,
0.666,1.62,-4.23,6.42,-1.56,-1.24,-1.26,
0.671,-0.24,-4.84,5.32,-1.56,-1.24,-1.26,
0.672,-0.24,-4.84,5.32,-1.33,-1.35,-1.14,
0.682,-0.24,-4.84,5.32,-1.19,-1.41,-0.90,
0.683,-2.27,-5.43,3.79,-1.19,-1.41,-0.90,
0.684,-2.27,-5.43,3.79,-1.16,-1.41,-0.52,
0.684,-3.95,-5.89,2.29,-1.16,-1.41,-0.52,
0.685,-3.95,-5.89,2.29,-1.25,-1.36,-0.06,
0.686,-4.64,-6.38,1.48,-1.25,-1.36,-0.06,
0.691,-4.64,-6.38,1.48,-1.44,-1.28,0.45,
0.692,-6.69,-6.59,0.93,-1.44,-1.28,0.45,
0.695,-6.69,-6.59,0.93,-1.69,-1.11,1.04,
0.696,-8.12,-7.31,0.93,-1.69,-1.11,1.04,
0.7,-8.12,-7.31,0.93,-1.99,-0.89,1.71,
0.701,-8.88,-8.29,1.86,-1.99,-0.89,1.71,
0.705,-8.88,-8.29,1.86,-2.27,-0.66,2.42,
0.705,-9.09,-9.42,3.84,-2.27,-0.66,2.42,
0.71,-8.34,-10.85,6.75,-2.27,-0.66,2.42,
0.711,-8.34,-10.85,6.75,-2.47,-0.43,3.14,
0.715,-8.34,-10.85,6.75,-2.53,-0.22,3.85,
0.715,-6.41,-12.39,10.18,-2.53,-0.22,3.85,
0.72,-3.14,-13.70,13.47,-2.53,-0.22,3.85,
0.72,-3.14,-13.70,13.47,-2.39,-0.03,4.47,
0.737,0.44,-14.13,15.87,-2.39,-0.03,4.47,
0.739,0.44,-14.13,15.87,-2.04,0.17,4.97,
0.74,3.83,-13.77,17.27,-2.04,0.17,4.97,
0.741,3.83,-13.77,17.27,-1.52,0.39,5.33,
0.741,3.83,-13.77,17.27,-0.87,0.62,5.54,
0.742,6.87,-12.97,17.67,-0.87,0.62,5.54,
0.742,6.87,-12.97,17.67,-0.16,0.82,5.61,
0.743,9.37,-12.00,17.22,-0.16,0.82,5.61,
0.78,9.37,-12.00,17.22,0.59,1.03,5.59,
0.781,11.50,-10.79,15.92,0.59,1.03,5.59,
0.781,11.50,-10.79,15.92,1.33,1.28,5.51,
0.782,13.43,-9.34,13.50,1.33,1.28,5.51,
0.783,15.03,-7.79,9.99,1.33,1.28,5.51,
0.783,15.03,-7.79,9.99,2.02,1.56,5.35,
0.784,16.26,-6.47,5.88,2.02,1.56,5.35,
0.784,16.26,-6.47,5.88,2.61,1.83,5.13,
0.785,16.26,-6.47,5.88,3.05,2.02,4.83,
0.785,17.03,-5.40,1.52,3.05,2.02,4.83,
0.786,17.03,-5.40,1.52,3.31,2.08,4.49,
0.786,17.14,-4.57,-2.66,3.31,2.08,4.49,
0.787,17.14,-4.57,-2.66,3.42,2.01,4.14,
0.787,16.24,-4.08,-6.15,3.42,2.01,4.14,
0.788,16.24,-4.08,-6.15,3.36,1.85,3.83,
0.788,13.99,-3.49,-8.18,3.36,1.85,3.83,
0.788,13.99,-3.49,-8.18,3.19,1.65,3.61,
0.789,11.06,-3.28,-8.24,3.19,1.65,3.61,
0.79,8.05,-3.52,-6.61,3.19,1.65,3.61,
0.79,8.05,-3.52,-6.61,2.99,1.49,3.55,
0.794,8.05,-3.52,-6.61,2.83,1.44,3.67,
0.795,5.66,-3.48,-4.94,2.83,1.44,3.67,
0.798,5.66,-3.48,-4.94,2.74,1.51,3.95,
0.799,4.74,-2.87,-3.98,2.74,1.51,3.95,
0.803,5.58,-1.74,-4.06,2.74,1.51,3.95,
0.804,5.58,-1.74,-4.06,2.71,1.63,4.28,
0.809,5.58,-1.74,-4.06,2.69,1.81,4.56,
0.81,7.44,-0.30,-5.27,2.69,1.81,4.56,
0.813,7.44,-0.30,-5.27,2.61,2.06,4.74,
0.813,9.43,1.38,-7.41,2.61,2.06,4.74,
0.817,10.85,3.20,-9.79,2.61,2.06,4.74,
0.818,10.85,3.20,-9.79,2.43,2.37,4.81,
0.823,11.88,5.18,-11.91,2.43,2.37,4.81,
0.824,11.88,5.18,-11.91,2.15,2.69,4.77,
0.837,11.88,5.18,-11.91,1.79,2.94,4.62,
0.838,13.06,7.22,-12.83,1.79,2.94,4.62,
0.839,14.33,9.13,-12.36,1.79,2.94,4.62,
0.84,14.33,9.13,-12.36,1.44,3.03,4.34,
0.841,15.05,10.67,-10.87,1.44,3.03,4.34,
0.841,15.05,10.67,-10.87,1.18,2.99,3.90,
0.865,15.05,10.67,-10.87,1.06,2.79,3.32,
0.866,14.81,11.62,-9.05,1.06,2.79,3.32,
0.867,14.81,11.62,-9.05,1.09,2.43,2.63,
0.867,14.06,12.12,-7.44,1.09,2.43,2.63,
0.903,14.06,12.12,-7.44,1.27,1.89,1.89,
0.903,13.19,12.34,-6.36,1.27,1.89,1.89,
0.904,13.19,12.34,-6.36,1.53,1.27,1.13,
0.904,12.10,12.19,-6.06,1.53,1.27,1.13,
0.905,10.69,11.66,-6.42,1.53,1.27,1.13,
0.905,10.69,11.66,-6.42,1.81,0.65,0.35,
0.906,10.69,11.66,-6.42,2.05,0.11,-0.42,
0.906,8.75,10.82,-6.77,2.05,0.11,-0.42,
0.906,8.75,10.82,-6.77,2.22,-0.35,-1.15,
0.907,6.76,9.70,-6.87,2.22,-0.35,-1.15,
0.907,6.76,9.70,-6.87,2.32,-0.71,-1.80,
0.908,4.48,8.67,-7.48,2.32,-0.71,-1.80,
0.908,1.67,7.60,-8.60,2.32,-0.71,-1.80,
0.909,1.67,7.60,-8.60,2.34,-0.95,-2.36,
0.909,1.67,7.60,-8.60,2.25,-1.08,-2.78,
0.91,-1.89,6.64,-10.08,2.25,-1.08,-2.78,
0.91,-1.89,6.64,-10.08,2.03,-1.16,-3.05,
0.911,-6.06,5.79,-11.72,2.03,-1.16,-3.05,
0.911,-9.92,5.18,-13.51,2.03,-1.16,-3.05,
0.912,-9.92,5.18,-13.51,1.69,-1.21,-3.14,
0.912,-9.92,5.18,-13.51,1.21,-1.25,-3.06,
0.913,-12.51,4.76,-15.40,1.21,-1.25,-3.06,
0.913,-14.27,4.35,-17.29,1.21,-1.25,-3.06,
0.914,-14.27,4.35,-17.29,0.58,-1.30,-2.85,
0.916,-15.06,3.76,-18.23,0.58,-1.30,-2.85,
0.916,-15.06,3.76,-18.23,-0.16,-1.35,-2.57,
0.917,-15.11,3.12,-17.58,-0.16,-1.35,-2.57,
0.917,-15.11,3.12,-17.58,-0.99,-1.44,-2.25,
0.92,-13.84,2.28,-14.83,-0.99,-1.44,-2.25,
0.921,-13.84,2.28,-14.83,-1.81,-1.53,-1.93,
0.926,-13.84,2.28,-14.83,-2.54,-1.68,-1.66,
0.927,-11.68,1.08,-10.25,-2.54,-1.68,-1.66,
0.929,-9.73,-0.29,-4.73,-2.54,-1.68,-1.66,
0.93,-9.73,-0.29,-4.73,-3.11,-1.88,-1.47,
0.935,-9.73,-0.29,-4.73,-3.44,-2.09,-1.36,
0.935,-8.27,-1.61,0.90,-3.44,-2.09,-1.36,
0.939,-8.27,-1.61,0.90,-3.54,-2.30,-1.30,
0.94,-6.97,-2.77,6.14,-3.54,-2.30,-1.30,
0.948,-5.37,-3.84,10.41,-3.54,-2.30,-1.30,
0.949,-5.37,-3.84,10.41,-3.42,-2.49,-1.27,
0.949,-3.48,-4.93,13.61,-3.42,-2.49,-1.27,
0.95,-3.48,-4.93,13.61,-3.12,-2.65,-1.27,
0.953,-3.48,-4.93,13.61,-2.70,-2.73,-1.31,
0.954,-1.78,-5.58,15.85,-2.70,-2.73,-1.31,
0.972,0.09,-6.16,17.20,-2.70,-2.73,-1.31,
0.973,0.09,-6.16,17.20,-2.19,-2.76,-1.40,
0.973,0.09,-6.16,17.20,-1.64,-2.74,-1.54,
0.974,1.86,-6.72,17.45,-1.64,-2.74,-1.54,
0.974,3.75,-7.08,16.28,-1.64,-2.74,-1.54,
0.975,3.75,-7.08,16.28,-1.08,-2.60,-1.70,
0.975,3.75,-7.08,16.28,-0.59,-2.30,-1.90,
0.976,4.99,-7.08,13.95,-0.59,-2.30,-1.90,
0.981,4.99,-7.08,13.95,-0.21,-1.82,-2.12,
0.982,5.59,-7.18,11.63,-0.21,-1.82,-2.12,
0.983,5.63,-6.94,9.99,-0.21,-1.82,-2.12,
0.983,5.63,-6.94,9.99,0.09,-1.26,-2.35,
0.988,5.63,-6.94,9.99,0.39,-0.80,-2.56,
0.989,4.55,-7.02,8.18,0.39,-0.80,-2.56,
0.993,4.55,-7.02,8.18,0.70,-0.62,-2.71,
0.994,2.46,-7.22,5.92,0.70,-0.62,-2.71,
0.998,2.46,-7.22,5.92,0.99,-0.66,-2.74,
0.999,0.16,-7.56,3.22,0.99,-0.66,-2.74,
1.003,0.16,-7.56,3.22,1.20,-0.77,-2.66,
1.004,-2.24,-7.97,0.96,1.20,-0.77,-2.66,
1.008,-2.24,-7.97,0.96,1.31,-0.96,-2.44,
1.008,-3.72,-9.49,-2.71,1.31,-0.96,-2.44,
1.013,-6.18,-7.02,-0.22,1.31,-0.96,-2.44,
1.014,-6.18,-7.02,-0.22,1.30,-1.19,-2.10,
1.017,-6.18,-7.02,-0.22,1.32,-1.35,-1.64,
1.018,-8.26,-6.17,-1.58,1.32,-1.35,-1.64,
1.022,-8.26,-6.17,-1.58,1.25,-1.40,-1.01,
1.023,-9.26,-7.32,-3.75,1.25,-1.40,-1.01,
1.028,-9.45,-5.53,-4.48,1.25,-1.40,-1.01,
1.029,-9.45,-5.53,-4.48,1.06,-1.23,-0.29,
1.032,-9.45,-5.53,-4.48,0.80,-0.95,0.50,
1.033,-8.51,-4.47,-5.10,0.80,-0.95,0.50,
1.037,-8.51,-4.47,-5.10,0.56,-0.63,1.30,
1.037,-6.26,-5.05,-5.38,0.56,-0.63,1.30,
1.052,-4.49,-4.06,-6.55,0.56,-0.63,1.30,
1.053,-4.49,-4.06,-6.55,0.43,-0.45,2.07,
1.054,-4.49,-4.06,-6.55,0.35,-0.42,2.83,
1.054,-2.78,-1.99,-7.62,0.35,-0.42,2.83,
1.055,-0.33,0.72,-7.56,0.35,-0.42,2.83,
1.056,-0.33,0.72,-7.56,0.28,-0.51,3.50,
1.057,-0.33,0.72,-7.56,0.27,-0.65,4.05,
1.057,3.34,3.48,-6.81,0.27,-0.65,4.05,
1.088,7.34,5.48,-6.74,0.27,-0.65,4.05,
1.089,7.34,5.48,-6.74,0.36,-0.82,4.42,
1.09,7.34,5.48,-6.74,0.54,-0.98,4.59,
1.09,11.50,7.24,-8.18,0.54,-0.98,4.59,
1.091,11.50,7.24,-8.18,0.71,-1.12,4.54,
1.092,14.77,9.07,-10.42,0.71,-1.12,4.54,
1.092,16.43,10.69,-12.32,0.71,-1.12,4.54,
1.093,16.43,10.69,-12.32,0.81,-1.24,4.28,
1.094,16.19,12.08,-13.36,0.81,-1.24,4.28,
1.094,16.19,12.08,-13.36,0.82,-1.30,3.88,
1.095,14.43,13.14,-13.53,0.82,-1.30,3.88,
1.095,14.43,13.14,-13.53,0.80,-1.31,3.44,
1.096,10.77,13.70,-13.13,0.80,-1.31,3.44,
1.096,10.77,13.70,-13.13,0.80,-1.31,3.07,
1.137,10.77,13.70,-13.13,0.86,-1.38,2.86,
1.138,6.19,14.32,-14.01,0.86,-1.38,2.86,
1.138,3.07,14.52,-16.48,0.86,-1.38,2.86,
1.139,3.07,14.52,-16.48,0.91,-1.48,2.89,
1.139,1.22,14.44,-19.94,0.91,-1.48,2.89,
1.14,1.22,14.44,-19.94,0.85,-1.60,3.12,
1.14,2.21,14.25,-24.23,0.85,-1.60,3.12,
1.141,2.21,14.25,-24.23,0.63,-1.66,3.51,
1.141,2.21,14.25,-24.23,0.23,-1.62,3.95,
1.142,4.11,13.61,-28.33,0.23,-1.62,3.95,
1.142,4.11,13.61,-28.33,-0.35,-1.54,4.39,
1.142,6.05,12.02,-30.27,-0.35,-1.54,4.39,
1.143,6.05,12.02,-30.27,-0.99,-1.55,4.83,
1.143,8.52,9.84,-29.80,-0.99,-1.55,4.83,
1.144,8.52,9.84,-29.80,-1.58,-1.69,5.24,
1.144,12.15,6.87,-27.19,-1.58,-1.69,5.24,
1.145,15.48,6.59,-21.26,-1.58,-1.69,5.24,
1.145,15.48,6.59,-21.26,-2.05,-1.95,5.51,
1.146,15.48,6.59,-21.26,-2.32,-2.08,5.47,
1.146,10.60,11.58,-12.03,-2.32,-2.08,5.47,
1.146,10.60,11.58,-12.03,-2.39,-1.94,5.36,
1.147,1.96,8.60,-9.14,-2.39,-1.94,5.36,
1.15,10.40,7.71,-4.04,-2.39,-1.94,5.36,
1.151,10.40,7.71,-4.04,-2.50,-1.93,5.62,
1.154,10.40,7.71,-4.04,-2.54,-1.79,5.41,
1.155,14.80,15.41,9.99,-2.54,-1.79,5.41,
1.166,14.80,15.41,9.99,-2.15,-1.12,4.44,
1.167,3.57,22.50,22.97,-2.15,-1.12,4.44,
1.168,-4.91,23.32,23.27,-2.15,-1.12,4.44,
1.168,-4.91,23.32,23.27,-1.35,-0.29,3.74,
1.169,-4.91,23.32,23.27,-0.62,0.14,3.57,
1.169,-4.52,27.60,19.31,-0.62,0.14,3.57,
1.173,-4.52,27.60,19.31,-0.19,0.68,3.38,
1.174,-12.00,29.90,19.77,-0.19,0.68,3.38,
1.191,-12.00,29.90,19.77,0.06,1.67,3.31,
1.192,-37.36,29.84,29.62,0.06,1.67,3.31,
1.193,-37.36,29.84,29.62,0.29,2.82,4.34,
1.193,-37.51,29.76,39.11,0.29,2.82,4.34,
1.194,-37.51,29.76,39.11,0.47,3.74,6.69,
1.194,-37.77,29.67,30.94,0.47,3.74,6.69,
1.195,-37.77,29.67,30.94,1.03,5.13,9.04,
1.195,11.18,29.58,2.90,1.03,5.13,9.04,
1.198,11.18,29.58,2.90,1.90,6.73,9.08,
1.199,39.76,29.51,-39.09,1.90,6.73,9.08,
1.203,39.40,20.92,-38.95,1.90,6.73,9.08,
1.203,39.40,20.92,-38.95,1.69,5.63,6.48,
1.208,39.25,10.26,-38.92,1.69,5.63,6.48,
1.209,39.25,10.26,-38.92,-0.50,2.78,2.04,
1.214,39.31,-2.57,-39.06,-0.50,2.78,2.04,
1.215,39.31,-2.57,-39.06,-3.98,0.77,-2.30,
1.217,39.31,-2.57,-39.06,-6.56,-0.10,-4.90,
1.218,29.80,-18.04,-10.72,-6.56,-0.10,-4.90,
1.223,29.80,-18.04,-10.72,-6.47,-0.29,-5.82,
1.223,-5.25,-29.18,38.73,-6.47,-0.29,-5.82,
1.233,-26.71,-36.67,38.49,-6.47,-0.29,-5.82,
1.235,-26.71,-36.67,38.49,-4.23,-0.41,-5.37,
1.235,-26.71,-36.67,38.49,-2.02,-0.54,-4.23,
1.236,-38.13,-37.45,34.49,-2.02,-0.54,-4.23,
1.241,-38.13,-37.45,34.49,-0.89,-0.51,-2.63,
1.242,-37.97,-36.75,21.00,-0.89,-0.51,-2.63,
1.243,-37.97,-36.75,21.00,-0.75,-0.10,-0.89,
1.243,-36.38,-35.59,9.76,-0.75,-0.10,-0.89,
1.26,-31.64,-33.70,1.88,-0.75,-0.10,-0.89,
1.261,-31.64,-33.70,1.88,-1.25,0.54,0.65,
1.262,-26.87,-31.04,1.54,-1.25,0.54,0.65,
1.262,-26.87,-31.04,1.54,-2.04,1.11,2.05,
1.263,-19.62,-26.52,8.28,-2.04,1.11,2.05,
1.264,-19.62,-26.52,8.28,-2.64,1.47,3.29,
1.264,-19.62,-26.52,8.28,-2.65,1.70,4.17,
1.264,-12.75,-20.62,14.78,-2.65,1.70,4.17,
1.29,-12.75,-20.62,14.78,-2.10,1.85,4.68,
1.291,-6.87,-14.70,14.13,-2.10,1.85,4.68,
1.292,-2.64,-8.69,7.61,-2.10,1.85,4.68,
1.292,-2.64,-8.69,7.61,-1.41,1.91,4.87,
1.292,-2.64,-8.69,7.61,-1.01,2.04,4.85,
1.293,0.46,-2.86,-0.74,-1.01,2.04,4.85,
1.293,3.47,2.58,-7.57,-1.01,2.04,4.85,
1.294,3.47,2.58,-7.57,-0.98,2.28,4.70,
1.294,6.32,8.30,-12.73,-0.98,2.28,4.70,
1.295,6.32,8.30,-12.73,-1.20,2.39,4.46,
1.295,8.61,14.64,-17.63,-1.20,2.39,4.46,
1.295,8.61,14.64,-17.63,-1.57,2.30,4.14,
1.296,8.61,14.64,-17.63,-2.05,2.02,3.70,
1.296,10.37,19.47,-18.42,-2.05,2.02,3.70,
1.305,11.76,21.73,-15.03,-2.05,2.02,3.70,
1.306,11.76,21.73,-15.03,-2.52,1.63,3.14,
1.307,11.76,21.73,-15.03,-2.77,1.19,2.50,
1.307,12.20,22.34,-11.44,-2.77,1.19,2.50,
1.329,12.54,20.65,-8.57,-2.77,1.19,2.50,
1.33,12.54,20.65,-8.57,-2.84,0.76,1.82,
1.331,12.54,20.65,-8.57,-2.81,0.45,1.13,
1.331,10.73,18.13,-5.92,-2.81,0.45,1.13,
1.331,8.61,15.26,-2.77,-2.81,0.45,1.13,
1.332,8.61,15.26,-2.77,-2.70,0.34,0.51,
1.332,8.61,15.26,-2.77,-2.50,0.33,-0.03,
1.332,6.12,11.73,-0.21,-2.50,0.33,-0.03,
1.333,6.12,11.73,-0.21,-2.21,0.34,-0.47,
1.333,2.57,6.94,0.17,-2.21,0.34,-0.47,
1.334,2.57,6.94,0.17,-1.98,0.37,-0.73,
1.335,-1.02,0.96,-1.08,-1.98,0.37,-0.73,
1.367,-1.02,0.96,-1.08,-1.95,0.53,-0.79,
1.367,-5.22,-4.61,-2.01,-1.95,0.53,-0.79,
1.368,-5.22,-4.61,-2.01,-2.14,0.90,-0.65,
1.368,-9.24,-9.29,-1.93,-2.14,0.90,-0.65,
1.369,-9.24,-9.29,-1.93,-2.48,1.43,-0.31,
1.369,-12.07,-13.39,-0.35,-2.48,1.43,-0.31,
1.37,-12.86,-16.28,2.03,-2.48,1.43,-0.31,
1.37,-12.86,-16.28,2.03,-2.82,1.99,0.20,
1.37,-12.01,-17.34,3.52,-2.82,1.99,0.20,
1.371,-12.01,-17.34,3.52,-3.05,2.44,0.76,
1.371,-12.01,-17.34,3.52,-3.13,2.70,1.28,
1.372,-10.94,-17.34,3.41,-3.13,2.70,1.28,
1.372,-9.99,-16.88,2.49,-3.13,2.70,1.28,
1.373,-9.99,-16.88,2.49,-3.16,2.72,1.73,
1.373,-9.99,-16.88,2.49,-3.18,2.56,2.15,
1.374,-9.28,-15.67,1.49,-3.18,2.56,2.15,
1.384,-7.83,-13.74,0.73,-3.18,2.56,2.15,
1.385,-7.83,-13.74,0.73,-3.22,2.33,2.62,
1.392,-5.87,-12.03,0.32,-3.22,2.33,2.62,
1.392,-5.87,-12.03,0.32,-3.28,2.13,3.08,
1.393,-4.10,-10.45,0.28,-3.28,2.13,3.08,
1.394,-4.10,-10.45,0.28,-3.33,1.89,3.46,
1.395,-4.10,-10.45,0.28,-3.37,1.59,3.80,
1.395,-2.75,-8.98,-0.09,-3.37,1.59,3.80,
1.484,-2.75,-8.98,-0.09,-3.45,1.32,4.10,
1.485,-0.90,-7.63,-1.15,-3.45,1.32,4.10,
1.486,1.21,-6.54,-1.81,-3.45,1.32,4.10,
1.486,1.21,-6.54,-1.81,-3.63,1.23,4.35,
1.487,2.56,-5.85,-1.51,-3.63,1.23,4.35,
1.487,2.56,-5.85,-1.51,-3.94,1.31,4.49,
1.487,2.56,-5.85,-1.51,-4.33,1.55,4.52,
1.488,2.09,-5.95,-0.41,-4.33,1.55,4.52,
1.488,0.23,-6.95,1.26,-4.33,1.55,4.52,
1.489,0.23,-6.95,1.26,-4.76,1.95,4.52,
1.489,0.23,-6.95,1.26,-5.18,2.49,4.54,
1.489,-3.00,-8.08,3.51,-5.18,2.49,4.54,
1.49,-3.00,-8.08,3.51,-5.57,3.15,4.65,
1.491,-6.46,-8.98,6.53,-5.57,3.15,4.65,
1.491,-6.46,-8.98,6.53,-5.85,3.89,4.83,
1.492,-9.23,-9.09,10.20,-5.85,3.89,4.83,
1.492,-9.23,-9.09,10.20,-5.95,4.62,5.06,
1.493,-11.43,-8.54,13.66,-5.95,4.62,5.06,
1.494,-11.43,-8.54,13.66,-5.86,5.25,5.30,
1.494,-13.25,-8.30,15.82,-5.86,5.25,5.30,
1.496,-14.12,-8.51,17.41,-5.86,5.25,5.30,
1.496,-14.12,-8.51,17.41,-5.63,5.73,5.59,
1.497,-12.85,-8.48,20.31,-5.63,5.73,5.59,
1.498,-12.85,-8.48,20.31,-5.25,6.03,5.94,
1.498,-9.15,-7.73,23.43,-5.25,6.03,5.94,
1.499,-9.15,-7.73,23.43,-4.65,6.09,6.33,
1.499,-4.35,-6.76,24.24,-4.65,6.09,6.33,
1.5,-4.35,-6.76,24.24,-3.78,5.82,6.67,
1.5,0.64,-6.02,22.49,-3.78,5.82,6.67,
1.501,0.64,-6.02,22.49,-2.78,5.27,6.93,
1.501,0.64,-6.02,22.49,-1.82,4.62,7.09,
1.502,5.28,-5.31,19.53,-1.82,4.62,7.09,
1.502,5.28,-5.31,19.53,-1.02,4.00,7.11,
1.502,9.55,-4.44,16.04,-1.02,4.00,7.11,
1.503,13.21,-3.45,12.15,-1.02,4.00,7.11,
1.503,13.21,-3.45,12.15,-0.45,3.50,6.99,
1.504,13.21,-3.45,12.15,-0.12,3.10,6.74,
1.504,16.15,-2.35,8.03,-0.12,3.10,6.74,
1.505,18.55,-0.92,4.17,-0.12,3.10,6.74,
1.505,18.55,-0.92,4.17,-0.04,2.78,6.36,
1.505,20.85,0.66,0.81,-0.04,2.78,6.36,
1.506,20.85,0.66,0.81,-0.18,2.61,5.88,
1.506,23.11,2.04,-2.29,-0.18,2.61,5.88,
1.507,23.11,2.04,-2.29,-0.51,2.64,5.31,
1.507,24.23,2.96,-4.85,-0.51,2.64,5.31,
1.508,24.23,2.96,-4.85,-1.05,2.88,4.65,
1.518,24.23,2.96,-4.85,-1.74,3.29,3.91,
1.518,23.40,3.44,-6.64,-1.74,3.29,3.91,
1.519,23.40,3.44,-6.64,-2.52,3.91,3.13,
1.519,20.79,3.37,-7.62,-2.52,3.91,3.13,
1.521,20.79,3.37,-7.62,-3.31,4.66,2.38,
1.521,16.81,2.84,-7.32,-3.31,4.66,2.38,
1.524,16.81,2.84,-7.32,-4.03,5.40,1.72,
1.525,11.81,1.96,-5.54,-4.03,5.40,1.72,
1.545,11.81,1.96,-5.54,-4.57,5.99,1.21,
1.545,6.61,1.24,-2.53,-4.57,5.99,1.21,
1.546,6.61,1.24,-2.53,-4.84,6.35,0.88,
1.546,1.84,1.00,1.07,-4.84,6.35,0.88,
1.546,1.84,1.00,1.07,-4.81,6.42,0.74,
1.547,-2.30,1.27,4.61,-4.81,6.42,0.74,
1.547,-2.30,1.27,4.61,-4.54,6.23,0.79,
1.547,-5.53,1.34,7.22,-4.54,6.23,0.79,
1.556,-5.53,1.34,7.22,-4.10,5.92,1.01,
1.556,-8.00,0.37,8.43,-4.10,5.92,1.01,
1.556,-9.11,-0.92,8.26,-4.10,5.92,1.01,
1.557,-9.11,-0.92,8.26,-3.57,5.55,1.36,
1.586,-8.86,-1.70,7.20,-3.57,5.55,1.36,
1.587,-8.86,-1.70,7.20,-3.02,5.14,1.79,
1.587,-7.94,-2.05,5.84,-3.02,5.14,1.79,
1.588,-7.94,-2.05,5.84,-2.52,4.71,2.20,
1.588,-6.75,-2.54,4.41,-2.52,4.71,2.20,
1.588,-6.75,-2.54,4.41,-2.12,4.26,2.56,
1.589,-6.75,-2.54,4.41,-1.86,3.81,2.88,
1.589,-5.16,-3.22,2.80,-1.86,3.81,2.88,
1.589,-3.32,-3.86,1.01,-1.86,3.81,2.88,
1.59,-3.32,-3.86,1.01,-1.72,3.39,3.14,
1.62,-3.32,-3.86,1.01,-1.73,3.06,3.30,
1.621,-1.77,-4.26,-0.73,-1.73,3.06,3.30,
1.621,-1.77,-4.26,-0.73,-1.86,2.88,3.37,
1.621,-0.31,-4.63,-2.13,-1.86,2.88,3.37,
1.622,1.17,-4.75,-2.65,-1.86,2.88,3.37,
1.622,1.17,-4.75,-2.65,-2.09,2.81,3.36,
1.622,1.17,-4.75,-2.65,-2.37,2.83,3.28,
1.623,2.74,-4.59,-2.50,-2.37,2.83,3.28,
1.623,2.74,-4.59,-2.50,-2.64,2.93,3.12,
1.623,4.11,-4.21,-1.96,-2.64,2.93,3.12,
1.624,4.11,-4.21,-1.96,-2.88,3.07,2.87,
1.624,4.97,-3.62,-1.25,-2.88,3.07,2.87,
1.624,5.38,-2.79,-0.35,-2.88,3.07,2.87,
1.625,5.38,-2.79,-0.35,-3.04,3.21,2.57,
1.625,5.38,-2.79,-0.35,-3.11,3.32,2.24,
1.625,5.77,-1.66,0.66,-3.11,3.32,2.24,
1.626,5.77,-1.66,0.66,-3.07,3.37,1.90,
1.626,6.00,-0.44,1.75,-3.07,3.37,1.90,
1.626,5.84,0.58,2.71,-3.07,3.37,1.90,
1.627,5.84,0.58,2.71,-2.92,3.30,1.55,
1.632,5.11,1.29,3.26,-2.92,3.30,1.55,
1.633,5.11,1.29,3.26,-2.66,3.07,1.22,
1.637,3.87,1.82,3.35,-2.66,3.07,1.22,
1.637,3.87,1.82,3.35,-2.34,2.70,0.93,
1.641,2.11,2.15,3.23,-2.34,2.70,0.93,
1.642,2.11,2.15,3.23,-2.01,2.26,0.70,
1.651,0.01,2.26,3.09,-2.01,2.26,0.70,
1.652,0.01,2.26,3.09,-1.71,1.82,0.58,
1.652,0.01,2.26,3.09,-1.45,1.41,0.57,
1.653,-2.14,2.18,3.35,-1.45,1.41,0.57,
1.656,-2.14,2.18,3.35,-1.23,1.08,0.66,
1.657,-3.58,1.89,4.25,-1.23,1.08,0.66,
1.679,-3.58,1.89,4.25,-1.01,0.84,0.82,
1.68,-4.33,1.44,5.52,-1.01,0.84,0.82,
1.68,-4.33,1.44,5.52,-0.76,0.63,1.02,
1.681,-4.58,0.96,6.69,-0.76,0.63,1.02,
1.681,-4.58,0.96,6.69,-0.47,0.44,1.23,
1.682,-4.45,0.43,7.19,-0.47,0.44,1.23,
1.682,-4.18,0.02,6.80,-0.47,0.44,1.23,
1.682,-4.18,0.02,6.80,-0.19,0.30,1.45,
1.683,-4.18,0.02,6.80,0.06,0.24,1.66,
1.683,-3.64,-0.38,5.82,0.06,0.24,1.66,
1.686,-2.61,-0.80,4.66,0.06,0.24,1.66,
1.687,-2.61,-0.80,4.66,0.24,0.27,1.85,
1.691,-1.10,-1.09,3.67,0.24,0.27,1.85,
1.691,-1.10,-1.09,3.67,0.32,0.39,2.01,
1.696,0.96,-1.15,3.28,0.32,0.39,2.01,
1.697,0.96,-1.15,3.28,0.33,0.57,2.09,
1.701,3.12,-0.92,3.70,0.33,0.57,2.09,
1.701,3.12,-0.92,3.70,0.30,0.81,2.07,
1.705,5.05,-0.46,4.37,0.30,0.81,2.07,
1.706,5.05,-0.46,4.37,0.27,1.07,1.95,
1.719,5.05,-0.46,4.37,0.27,1.32,1.75,
1.72,6.59,-0.04,4.81,0.27,1.32,1.75,
1.72,6.59,-0.04,4.81,0.31,1.57,1.49,
1.721,7.56,0.29,4.85,0.31,1.57,1.49,
1.721,7.74,0.61,4.44,0.31,1.57,1.49,
1.721,7.74,0.61,4.44,0.38,1.81,1.20,
1.725,7.74,0.61,4.44,0.45,2.02,0.90,
1.725,7.12,0.84,3.78,0.45,2.02,0.90,
1.747,7.12,0.84,3.78,0.53,2.18,0.63,
1.748,6.13,1.14,3.10,0.53,2.18,0.63,
1.748,4.97,1.39,2.44,0.53,2.18,0.63,
1.749,4.97,1.39,2.44,0.61,2.29,0.40,
1.749,4.97,1.39,2.44,0.71,2.34,0.23,
1.749,3.62,1.44,1.89,0.71,2.34,0.23,
1.75,3.62,1.44,1.89,0.84,2.30,0.11,
1.75,2.05,1.21,1.07,0.84,2.30,0.11,
1.75,2.05,1.21,1.07,1.00,2.14,0.07,
1.751,0.59,0.96,-0.08,1.00,2.14,0.07,
1.754,-0.52,0.94,-1.54,1.00,2.14,0.07,
1.754,-0.52,0.94,-1.54,1.16,1.85,0.08,
1.758,-0.52,0.94,-1.54,1.30,1.46,0.12,
1.759,-1.36,1.04,-3.12,1.30,1.46,0.12,
1.763,-1.36,1.04,-3.12,1.37,1.01,0.17,
1.764,-1.85,1.06,-4.59,1.37,1.01,0.17,
1.769,-1.85,1.06,-4.59,1.39,0.55,0.25,
1.769,-2.01,0.83,-5.79,1.39,0.55,0.25,
1.773,-2.01,0.83,-5.79,1.35,0.10,0.33,
1.774,-2.16,0.36,-6.69,1.35,0.10,0.33,
1.779,-2.28,-0.16,-7.23,1.35,0.10,0.33,
1.78,-2.28,-0.16,-7.23,1.24,-0.31,0.42,
1.783,-2.28,-0.16,-7.23,1.08,-0.66,0.51,
1.784,-2.28,-0.66,-7.37,1.08,-0.66,0.51,
1.788,-2.28,-0.66,-7.37,0.88,-0.92,0.59,
1.789,-1.94,-1.11,-7.19,0.88,-0.92,0.59,
1.793,-1.94,-1.11,-7.19,0.65,-1.09,0.67,
1.793,-1.44,-1.37,-6.68,0.65,-1.09,0.67,
1.798,-1.01,-1.52,-5.98,0.65,-1.09,0.67,
1.799,-1.01,-1.52,-5.98,0.40,-1.16,0.73,
1.803,-1.01,-1.52,-5.98,0.16,-1.14,0.78,
1.803,-0.43,-1.41,-5.16,0.16,-1.14,0.78,
1.808,-0.43,-1.41,-5.16,-0.07,-1.03,0.80,
1.808,0.74,-1.18,-3.88,-0.07,-1.03,0.80,
1.821,2.15,-0.90,-2.25,-0.07,-1.03,0.80,
1.823,2.15,-0.90,-2.25,-0.26,-0.83,0.76,
1.823,3.49,-0.56,-0.65,-0.26,-0.83,0.76,
1.824,3.49,-0.56,-0.65,-0.39,-0.55,0.63,
1.825,4.47,-0.17,0.52,-0.39,-0.55,0.63,
1.825,4.47,-0.17,0.52,-0.47,-0.26,0.44,
1.869,4.47,-0.17,0.52,-0.50,-0.01,0.21,
1.87,4.87,0.30,0.99,-0.50,-0.01,0.21,
1.871,4.55,0.90,0.97,-0.50,-0.01,0.21,
1.871,4.55,0.90,0.97,-0.51,0.20,-0.02,
1.872,4.55,0.90,0.97,-0.54,0.37,-0.25,
1.873,3.59,1.34,0.77,-0.54,0.37,-0.25,
1.873,3.59,1.34,0.77,-0.58,0.52,-0.43,
1.874,2.40,1.47,0.68,-0.58,0.52,-0.43,
1.874,2.40,1.47,0.68,-0.64,0.66,-0.56,
1.875,1.31,1.31,0.81,-0.64,0.66,-0.56,
1.876,1.31,1.31,0.81,-0.69,0.77,-0.63,
1.876,0.18,1.02,1.15,-0.69,0.77,-0.63,
1.877,0.18,1.02,1.15,-0.72,0.85,-0.65,
1.877,-0.85,0.71,1.68,-0.72,0.85,-0.65,
1.878,-1.77,0.44,2.26,-0.72,0.85,-0.65,
1.879,-1.77,0.44,2.26,-0.71,0.86,-0.60,
1.879,-2.43,0.24,2.73,-0.71,0.86,-0.60,
1.88,-2.43,0.24,2.73,-0.64,0.81,-0.50,
1.881,-2.43,0.24,2.73,-0.52,0.69,-0.37,
1.881,-2.68,0.03,2.94,-0.52,0.69,-0.37,
1.882,-2.87,-0.34,3.10,-0.52,0.69,-0.37,
1.882,-2.87,-0.34,3.10,-0.37,0.53,-0.22,
1.883,-3.06,-0.79,3.25,-0.37,0.53,-0.22,
1.883,-3.06,-0.79,3.25,-0.20,0.35,-0.07,
1.885,-3.06,-0.79,3.25,-0.04,0.19,0.10,
1.886,-3.16,-1.10,3.08,-0.04,0.19,0.10,
1.89,-3.16,-1.10,3.08,0.12,0.07,0.26,
1.891,-3.22,-1.20,2.67,0.12,0.07,0.26,
1.895,-3.22,-1.20,2.67,0.24,-0.00,0.42,
1.896,-3.25,-1.35,2.10,0.24,-0.00,0.42,
1.9,-3.25,-1.35,2.10,0.31,-0.02,0.56,
1.901,-3.15,-1.49,1.62,0.31,-0.02,0.56,
1.905,-2.88,-1.58,1.24,0.31,-0.02,0.56,
1.906,-2.88,-1.58,1.24,0.34,0.00,0.69,
1.91,-2.26,-1.66,0.92,0.34,0.00,0.69,
1.91,-2.26,-1.66,0.92,0.33,0.05,0.80,
1.915,-1.36,-1.68,0.75,0.33,0.05,0.80,
1.916,-1.36,-1.68,0.75,0.29,0.14,0.88,
1.92,-1.36,-1.68,0.75,0.22,0.26,0.92,
1.92,-0.04,-1.53,0.76,0.22,0.26,0.92,
1.924,-0.04,-1.53,0.76,0.15,0.40,0.90,
1.924,1.38,-1.08,1.10,0.15,0.40,0.90,
1.934,2.49,-0.54,1.67,0.15,0.40,0.90,
1.935,2.49,-0.54,1.67,0.11,0.51,0.81,
1.935,2.49,-0.54,1.67,0.11,0.58,0.66,
1.935,3.22,-0.06,2.17,0.11,0.58,0.66,
1.939,3.22,-0.06,2.17,0.16,0.61,0.47,
1.939,3.46,0.24,2.43,0.16,0.61,0.47,
1.962,3.46,0.24,2.43,0.25,0.59,0.29,
1.962,3.29,0.43,2.44,0.25,0.59,0.29,
1.963,2.84,0.55,2.20,0.25,0.59,0.29,
1.963,2.84,0.55,2.20,0.36,0.53,0.11,
1.963,2.11,0.58,1.82,0.36,0.53,0.11,
1.964,2.11,0.58,1.82,0.49,0.47,-0.03,
1.964,1.22,0.43,1.25,0.49,0.47,-0.03,
1.964,1.22,0.43,1.25,0.61,0.41,-0.13,
1.965,0.18,0.30,0.53,0.61,0.41,-0.13,
1.965,0.18,0.30,0.53,0.72,0.35,-0.18,
1.968,-0.81,0.13,-0.24,0.72,0.35,-0.18,
1.969,-0.81,0.13,-0.24,0.81,0.26,-0.18,
1.973,-1.73,-0.04,-1.09,0.81,0.26,-0.18,
1.973,-1.73,-0.04,-1.09,0.88,0.15,-0.12,
1.978,-2.33,-0.19,-1.85,0.88,0.15,-0.12,
1.979,-2.33,-0.19,-1.85,0.93,-0.01,-0.02,
1.983,-2.33,-0.19,-1.85,0.94,-0.18,0.13,
1.984,-2.55,-0.27,-2.42,0.94,-0.18,0.13,
1.988,-2.55,-0.27,-2.42,0.93,-0.34,0.29,
1.988,-2.38,-0.36,-2.79,0.93,-0.34,0.29,
1.993,-2.12,-0.54,-2.83,0.93,-0.34,0.29,
1.993,-2.12,-0.54,-2.83,0.88,-0.46,0.44,
1.998,-1.83,-0.64,-2.52,0.88,-0.46,0.44,
1.999,-1.83,-0.64,-2.52,0.80,-0.52,0.57,
2.003,-1.47,-0.59,-1.88,0.80,-0.52,0.57,
2.003,-1.47,-0.59,-1.88,0.71,-0.54,0.69,
2.007,-0.75,-0.32,-1.09,0.71,-0.54,0.69,
2.008,-0.75,-0.32,-1.09,0.63,-0.54,0.78,
2.012,0.72,0.29,0.05,0.63,-0.54,0.78,
2.013,0.72,0.29,0.05,0.58,-0.50,0.82,
2.018,0.72,0.29,0.05,0.56,-0.43,0.80,
2.018,2.97,1.19,1.49,0.56,-0.43,0.80,
2.023,5.02,2.03,2.94,0.56,-0.43,0.80,
2.023,5.02,2.03,2.94,0.60,-0.41,0.67,
2.027,5.02,2.03,2.94,0.69,-0.44,0.43,
2.028,6.37,2.67,3.78,0.69,-0.44,0.43,
2.039,6.37,2.67,3.78,0.81,-0.50,0.14,
2.041,6.82,3.13,3.70,0.81,-0.50,0.14,
2.041,6.82,3.13,3.70,0.91,-0.52,-0.17,
2.042,6.48,3.33,2.88,0.91,-0.52,-0.17,
2.043,6.48,3.33,2.88,0.95,-0.47,-0.47,
2.044,5.74,3.34,1.84,0.95,-0.47,-0.47,
2.081,5.74,3.34,1.84,0.93,-0.34,-0.72,
2.082,4.73,2.98,0.82,0.93,-0.34,-0.72,
2.082,4.73,2.98,0.82,0.84,-0.13,-0.90,
2.083,3.37,2.26,-0.46,0.84,-0.13,-0.90,
2.083,3.37,2.26,-0.46,0.68,0.14,-1.01,
2.084,1.17,1.29,-4.09,0.68,0.14,-1.01,
2.084,1.17,1.29,-4.09,0.39,0.55,-1.01,
2.085,-0.72,0.01,-6.38,0.39,0.55,-1.01,
2.085,-2.74,-0.67,-4.64,0.39,0.55,-1.01,
2.086,-2.74,-0.67,-4.64,-0.03,0.78,-0.87,
2.119,-2.74,-0.67,-4.64,-0.36,0.84,-0.66,
2.12,-4.00,-1.23,-3.05,-0.36,0.84,-0.66,
2.12,-4.03,-1.57,-1.67,-0.36,0.84,-0.66,
2.121,-4.03,-1.57,-1.67,-0.50,0.85,-0.43,
2.121,-4.03,-1.57,-1.67,-0.54,0.76,-0.17,
2.121,-3.45,-1.71,-0.76,-0.54,0.76,-0.17,
2.122,-3.45,-1.71,-0.76,-0.50,0.62,0.06,
2.122,-2.97,-1.76,0.27,-0.50,0.62,0.06,
2.122,-2.97,-1.76,0.27,-0.39,0.47,0.23,
2.123,-2.70,-1.94,1.14,-0.39,0.47,0.23,
2.123,-2.70,-1.94,1.14,-0.24,0.30,0.37,
2.124,-2.28,-2.08,1.49,-0.24,0.30,0.37,
2.124,-2.28,-2.08,1.49,-0.07,0.13,0.47,
2.124,-0.94,-1.99,1.41,-0.07,0.13,0.47,
2.125,-0.94,-1.99,1.41,0.09,-0.07,0.50,
2.125,0.89,-1.46,1.59,0.09,-0.07,0.50,
2.125,2.50,-0.75,2.13,0.09,-0.07,0.50,
2.126,2.50,-0.75,2.13,0.25,-0.28,0.42,
2.126,3.06,-0.33,2.32,0.25,-0.28,0.42,
2.126,3.06,-0.33,2.32,0.42,-0.50,0.24,
2.127,3.06,-0.33,2.32,0.56,-0.72,0.01,
2.127,2.79,-0.27,1.88,0.56,-0.72,0.01,
2.127,2.79,-0.27,1.88,0.66,-0.89,-0.21,
2.128,1.94,-0.36,0.96,0.66,-0.89,-0.21,
2.13,1.94,-0.36,0.96,0.67,-0.95,-0.40,
2.131,0.99,-0.51,0.28,0.67,-0.95,-0.40,
2.134,0.99,-0.51,0.28,0.61,-0.92,-0.55,
2.135,0.08,-0.71,-0.25,0.61,-0.92,-0.55,
2.139,0.08,-0.71,-0.25,0.51,-0.84,-0.65,
2.14,-0.68,-1.10,-0.72,0.51,-0.84,-0.65,
2.146,-0.68,-1.10,-0.72,0.37,-0.70,-0.70,
2.146,-1.59,-1.57,-1.25,0.37,-0.70,-0.70,
2.149,-1.59,-1.57,-1.25,0.23,-0.54,-0.70,
2.149,-2.81,-1.88,-1.68,0.23,-0.54,-0.70,
2.154,-2.81,-1.88,-1.68,0.07,-0.37,-0.63,
2.154,-4.19,-2.07,-1.82,0.07,-0.37,-0.63,
2.159,-4.19,-2.07,-1.82,-0.07,-0.25,-0.49,
2.159,-5.36,-2.27,-1.60,-0.07,-0.25,-0.49,
2.168,-5.36,-2.27,-1.60,-0.16,-0.19,-0.30,
2.169,-6.16,-2.35,-1.28,-0.16,-0.19,-0.30,
2.17,-6.49,-2.26,-1.18,-0.16,-0.19,-0.30,
2.17,-6.49,-2.26,-1.18,-0.19,-0.24,-0.06,
2.173,-6.49,-2.26,-1.18,-0.16,-0.35,0.19,
2.173,-6.28,-2.10,-1.43,-0.16,-0.35,0.19,
2.192,-6.28,-2.10,-1.43,-0.12,-0.52,0.45,
2.193,-5.67,-1.73,-1.68,-0.12,-0.52,0.45,
2.193,-4.71,-1.28,-1.76,-0.12,-0.52,0.45,
2.194,-4.71,-1.28,-1.76,-0.07,-0.73,0.69,
2.195,-4.71,-1.28,-1.76,-0.03,-0.91,0.89,
2.195,-3.21,-0.43,-1.72,-0.03,-0.91,0.89,
2.196,-3.21,-0.43,-1.72,0.01,-1.07,1.02,
2.196,-1.77,-0.51,-1.36,0.01,-1.07,1.02,
