
time,ax,ay,az,wx,wy,wz,
0.002,-0.96,-1.35,1.95,-0.66,-0.13,0.34,
0.003,-1.22,-1.35,2.12,-0.66,-0.13,0.34,
0.004,-1.41,-1.44,2.25,-0.66,-0.13,0.34,
0.004,-1.41,-1.44,2.25,-0.71,-0.17,0.33,
0.01,-1.62,-1.60,2.57,-0.71,-0.17,0.33,
0.01,-1.62,-1.60,2.57,-0.77,-0.19,0.32,
0.013,-1.74,-1.68,3.21,-0.77,-0.19,0.32,
0.014,-1.74,-1.68,3.21,-0.83,-0.19,0.33,
0.018,-1.14,-1.59,3.77,-0.83,-0.19,0.33,
0.019,-1.14,-1.59,3.77,-0.88,-0.17,0.34,
0.023,-0.26,-1.53,4.25,-0.88,-0.17,0.34,
0.024,-0.26,-1.53,4.25,-0.91,-0.13,0.34,
0.028,-0.26,-1.53,4.25,-0.92,-0.07,0.30,
0.029,0.04,-1.57,4.71,-0.92,-0.07,0.30,
0.033,0.04,-1.57,4.71,-0.91,0.02,0.24,
0.033,-0.25,-1.57,4.85,-0.91,0.02,0.24,
0.038,-0.25,-1.57,4.85,-0.90,0.12,0.19,
0.038,-0.91,-1.67,4.65,-0.90,0.12,0.19,
0.048,-0.91,-1.67,4.65,-0.91,0.23,0.18,
0.049,-1.36,-1.81,4.32,-0.91,0.23,0.18,
0.049,-1.36,-1.81,4.32,-0.95,0.32,0.18,
0.05,-1.43,-1.98,4.07,-0.95,0.32,0.18,
0.052,-1.43,-1.98,4.07,-1.01,0.44,0.20,
0.053,-1.37,-2.22,4.03,-1.01,0.44,0.20,
0.058,-1.47,-2.46,4.26,-1.01,0.44,0.20,
0.059,-1.47,-2.46,4.26,-1.09,0.56,0.22,
0.062,-1.47,-2.46,4.26,-1.16,0.69,0.24,
0.063,-1.49,-2.55,4.69,-1.16,0.69,0.24,
0.067,-1.49,-2.55,4.69,-1.21,0.80,0.26,
0.067,-1.44,-2.49,5.18,-1.21,0.80,0.26,
0.072,-1.44,-2.49,5.18,-1.23,0.87,0.28,
0.073,-1.43,-2.43,5.58,-1.23,0.87,0.28,
0.082,-1.28,-2.40,5.88,-1.23,0.87,0.28,
0.083,-1.28,-2.40,5.88,-1.23,0.91,0.30,
0.084,-1.14,-2.49,6.10,-1.23,0.91,0.30,
0.084,-1.14,-2.49,6.10,-1.22,0.93,0.31,
0.087,-1.14,-2.49,6.10,-1.19,0.93,0.32,
0.087,-0.95,-2.59,6.20,-1.19,0.93,0.32,
0.091,-0.73,-2.62,6.24,-1.19,0.93,0.32,
0.092,-0.73,-2.62,6.24,-1.17,0.92,0.32,
0.096,-0.73,-2.62,6.24,-1.14,0.90,0.32,
0.097,-0.48,-2.61,6.21,-1.14,0.90,0.32,
0.101,-0.48,-2.61,6.21,-1.12,0.89,0.31,
0.101,-0.24,-2.57,6.14,-1.12,0.89,0.31,
0.107,-0.05,-2.50,6.05,-1.12,0.89,0.31,
0.108,-0.05,-2.50,6.05,-1.11,0.86,0.29,
0.111,0.11,-2.48,5.96,-1.11,0.86,0.29,
0.111,0.11,-2.48,5.96,-1.10,0.85,0.28,
0.121,0.34,-2.50,5.76,-1.10,0.85,0.28,
0.121,0.34,-2.50,5.76,-1.11,0.83,0.25,
0.121,0.34,-2.50,5.76,-1.12,0.82,0.22,
0.122,0.66,-2.51,5.60,-1.12,0.82,0.22,
0.125,0.66,-2.51,5.60,-1.16,0.83,0.19,
0.126,0.92,-2.48,5.41,-1.16,0.83,0.19,
0.13,0.92,-2.48,5.41,-1.21,0.86,0.15,
0.131,1.16,-2.52,5.22,-1.21,0.86,0.15,
0.135,1.16,-2.52,5.22,-1.27,0.91,0.11,
0.135,1.21,-2.54,5.06,-1.27,0.91,0.11,
0.149,1.20,-2.60,4.92,-1.27,0.91,0.11,
0.15,1.20,-2.60,4.92,-1.35,0.97,0.08,
0.15,1.19,-2.67,4.93,-1.35,0.97,0.08,
0.151,1.19,-2.67,4.93,-1.45,1.03,0.05,
0.151,1.19,-2.67,4.93,-1.55,1.10,0.03,
0.152,1.20,-2.74,5.03,-1.55,1.10,0.03,
0.155,1.33,-2.81,5.12,-1.55,1.10,0.03,
0.156,1.33,-2.81,5.12,-1.65,1.16,0.00,
0.16,1.50,-2.92,5.22,-1.65,1.16,0.00,
0.16,1.50,-2.92,5.22,-1.74,1.21,-0.02,
0.164,1.62,-3.01,5.33,-1.74,1.21,-0.02,
0.165,1.62,-3.01,5.33,-1.84,1.26,-0.03,
0.169,1.78,-3.11,5.41,-1.84,1.26,-0.03,
0.17,1.78,-3.11,5.41,-1.93,1.33,-0.06,
0.184,1.90,-3.17,5.61,-1.93,1.33,-0.06,
0.185,1.90,-3.17,5.61,-2.03,1.41,-0.08,
0.185,1.98,-3.19,5.93,-2.03,1.41,-0.08,
0.185,1.98,-3.19,5.93,-2.11,1.50,-0.10,
0.186,2.05,-3.25,6.35,-2.11,1.50,-0.10,
0.186,2.05,-3.25,6.35,-2.19,1.58,-0.12,
0.191,2.18,-3.33,6.72,-2.19,1.58,-0.12,
0.191,2.18,-3.33,6.72,-2.24,1.64,-0.15,
0.194,2.18,-3.33,6.72,-2.27,1.68,-0.17,
0.195,2.28,-3.48,7.12,-2.27,1.68,-0.17,
0.199,2.28,-3.48,7.12,-2.28,1.70,-0.19,
0.199,2.35,-3.68,7.46,-2.28,1.70,-0.19,
0.203,2.35,-3.68,7.46,-2.25,1.69,-0.21,
0.204,2.42,-3.82,7.68,-2.25,1.69,-0.21,
0.208,2.42,-3.82,7.68,-2.20,1.65,-0.23,
0.209,2.35,-3.92,7.83,-2.20,1.65,-0.23,
0.213,2.35,-3.92,7.83,-2.14,1.57,-0.24,
0.214,2.25,-4.02,7.84,-2.14,1.57,-0.24,
0.218,2.25,-4.02,7.84,-2.06,1.43,-0.24,
0.219,2.14,-4.14,7.78,-2.06,1.43,-0.24,
0.224,2.03,-4.28,7.61,-2.06,1.43,-0.24,
0.226,2.03,-4.28,7.61,-1.97,1.24,-0.23,
0.228,2.03,-4.28,7.61,-1.87,1.00,-0.21,
0.229,1.88,-4.50,7.45,-1.87,1.00,-0.21,
0.233,1.85,-4.63,7.25,-1.87,1.00,-0.21,
0.234,1.85,-4.63,7.25,-1.78,0.73,-0.17,
0.238,1.95,-4.69,6.98,-1.78,0.73,-0.17,
0.239,1.95,-4.69,6.98,-1.69,0.42,-0.12,
0.243,1.95,-4.69,6.98,-1.62,0.12,-0.07,
0.244,2.16,-4.83,6.80,-1.62,0.12,-0.07,
0.248,2.16,-4.83,6.80,-1.57,-0.16,-0.01,
0.249,2.62,-5.03,6.66,-1.57,-0.16,-0.01,
0.253,2.62,-5.03,6.66,-1.53,-0.41,0.04,
0.253,3.17,-5.23,6.67,-1.53,-0.41,0.04,
0.268,3.17,-5.23,6.67,-1.51,-0.62,0.10,
0.269,3.59,-5.37,6.70,-1.51,-0.62,0.10,
0.27,4.08,-5.48,6.84,-1.51,-0.62,0.10,
0.271,4.08,-5.48,6.84,-1.51,-0.75,0.14,
0.271,4.47,-5.56,6.90,-1.51,-0.75,0.14,
0.272,4.47,-5.56,6.90,-1.52,-0.82,0.18,
0.273,4.47,-5.56,6.90,-1.54,-0.84,0.22,
0.273,4.79,-5.70,6.95,-1.54,-0.84,0.22,
0.301,5.15,-5.91,6.97,-1.54,-0.84,0.22,
0.302,5.15,-5.91,6.97,-1.56,-0.82,0.25,
0.303,5.37,-6.23,7.01,-1.56,-0.82,0.25,
0.303,5.37,-6.23,7.01,-1.59,-0.77,0.29,
0.304,5.37,-6.23,7.01,-1.63,-0.68,0.33,
0.304,5.48,-6.51,7.08,-1.63,-0.68,0.33,
0.305,5.48,-6.51,7.08,-1.66,-0.57,0.36,
0.305,5.45,-6.81,7.08,-1.66,-0.57,0.36,
0.306,5.45,-6.81,7.08,-1.70,-0.47,0.41,
0.306,5.37,-7.15,7.00,-1.70,-0.47,0.41,
0.307,5.37,-7.15,7.00,-1.73,-0.39,0.47,
0.307,5.42,-7.53,6.76,-1.73,-0.39,0.47,
0.308,5.42,-7.53,6.76,-1.77,-0.36,0.54,
0.308,5.56,-7.81,6.31,-1.77,-0.36,0.54,
0.313,5.56,-7.81,6.31,-1.81,-0.37,0.61,
0.314,5.82,-8.06,5.69,-1.81,-0.37,0.61,
0.316,5.82,-8.06,5.69,-1.87,-0.42,0.67,
0.316,6.25,-8.34,4.89,-1.87,-0.42,0.67,
0.321,6.25,-8.34,4.89,-1.95,-0.51,0.74,
0.321,6.84,-8.67,3.95,-1.95,-0.51,0.74,
0.326,7.44,-9.03,3.04,-1.95,-0.51,0.74,
0.326,7.44,-9.03,3.04,-2.07,-0.62,0.80,
0.33,8.00,-9.45,2.20,-2.07,-0.62,0.80,
0.331,8.00,-9.45,2.20,-2.22,-0.73,0.86,
0.335,8.73,-9.84,1.43,-2.22,-0.73,0.86,
0.336,8.73,-9.84,1.43,-2.41,-0.82,0.93,
0.34,8.73,-9.84,1.43,-2.64,-0.89,1.01,
0.341,9.40,-10.07,0.88,-2.64,-0.89,1.01,
0.345,9.40,-10.07,0.88,-2.90,-0.90,1.09,
0.346,9.92,-10.12,0.54,-2.90,-0.90,1.09,
0.35,10.35,-10.12,0.29,-2.90,-0.90,1.09,
0.351,10.35,-10.12,0.29,-3.18,-0.83,1.19,
0.354,10.82,-10.09,-0.04,-3.18,-0.83,1.19,
0.355,10.82,-10.09,-0.04,-3.48,-0.70,1.29,
0.397,10.82,-10.09,-0.04,-3.80,-0.56,1.38,
0.397,11.40,-10.19,-0.34,-3.80,-0.56,1.38,
0.398,11.40,-10.19,-0.34,-4.13,-0.44,1.48,
0.399,11.99,-10.49,-0.59,-4.13,-0.44,1.48,
0.399,11.99,-10.49,-0.59,-4.46,-0.33,1.57,
0.4,12.31,-10.83,-0.72,-4.46,-0.33,1.57,
0.4,12.31,-10.83,-0.72,-4.80,-0.20,1.66,
0.401,12.15,-10.97,-0.59,-4.80,-0.20,1.66,
0.402,12.15,-10.97,-0.59,-5.14,-0.06,1.76,
0.402,11.55,-11.15,-0.33,-5.14,-0.06,1.76,
0.403,11.55,-11.15,-0.33,-5.46,0.03,1.88,
0.403,10.87,-11.59,0.20,-5.46,0.03,1.88,
0.404,10.87,-11.59,0.20,-5.75,0.10,2.03,
0.404,10.60,-12.36,1.01,-5.75,0.10,2.03,
0.405,10.60,-12.36,1.01,-6.00,0.17,2.21,
0.405,10.54,-13.07,2.16,-6.00,0.17,2.21,
0.406,10.13,-13.26,3.69,-6.00,0.17,2.21,
0.406,10.13,-13.26,3.69,-6.20,0.25,2.39,
0.407,9.14,-12.85,5.67,-6.20,0.25,2.39,
0.407,9.14,-12.85,5.67,-6.31,0.36,2.59,
0.415,9.14,-12.85,5.67,-6.30,0.43,2.82,
0.416,8.31,-11.98,8.09,-6.30,0.43,2.82,
0.416,8.31,-11.98,8.09,-6.13,0.42,3.09,
0.417,8.15,-10.75,10.88,-6.13,0.42,3.09,
0.418,8.15,-10.75,10.88,-5.77,0.32,3.36,
0.419,8.23,-9.23,13.72,-5.77,0.32,3.36,
0.433,8.23,-9.23,13.72,-5.21,0.14,3.60,
0.434,8.15,-7.55,16.33,-5.21,0.14,3.60,
0.434,8.15,-7.55,16.33,-4.46,-0.08,3.83,
0.435,8.16,-5.91,18.09,-4.46,-0.08,3.83,
0.435,8.16,-5.91,18.09,-3.56,-0.38,4.04,
0.436,8.60,-4.30,18.74,-3.56,-0.38,4.04,
0.437,9.37,-2.65,18.40,-3.56,-0.38,4.04,
0.438,9.37,-2.65,18.40,-2.58,-0.69,4.21,
0.443,9.37,-2.65,18.40,-1.58,-0.94,4.32,
0.444,10.18,-0.97,17.39,-1.58,-0.94,4.32,
0.448,10.18,-0.97,17.39,-0.62,-1.07,4.35,
0.448,10.77,0.58,15.70,-0.62,-1.07,4.35,
0.453,10.77,0.58,15.70,0.26,-1.07,4.35,
0.453,11.17,1.67,13.46,0.26,-1.07,4.35,
0.458,11.51,2.70,11.04,0.26,-1.07,4.35,
0.459,11.51,2.70,11.04,1.02,-0.91,4.31,
0.474,11.51,2.70,11.04,1.66,-0.66,4.25,
0.475,11.91,3.75,8.49,1.66,-0.66,4.25,
0.476,11.91,3.75,8.49,2.19,-0.38,4.14,
0.476,12.59,4.67,5.66,2.19,-0.38,4.14,
0.476,12.59,4.67,5.66,2.62,-0.18,3.96,
0.477,13.15,5.49,2.74,2.62,-0.18,3.96,
0.477,13.15,5.49,2.74,2.98,-0.09,3.75,
0.478,13.74,6.20,-0.22,2.98,-0.09,3.75,
0.497,14.42,6.89,-3.13,2.98,-0.09,3.75,
0.498,14.42,6.89,-3.13,3.26,-0.12,3.48,
0.498,14.42,6.89,-3.13,3.44,-0.21,3.16,
0.499,14.95,7.50,-6.08,3.44,-0.21,3.16,
0.499,14.95,7.50,-6.08,3.50,-0.33,2.79,
0.5,15.03,8.00,-9.03,3.50,-0.33,2.79,
0.5,15.03,8.00,-9.03,3.42,-0.43,2.40,
0.5,15.02,8.23,-11.64,3.42,-0.43,2.40,
0.501,15.02,8.23,-11.64,3.18,-0.46,2.02,
0.501,14.11,8.40,-13.98,3.18,-0.46,2.02,
0.516,12.83,8.21,-15.83,3.18,-0.46,2.02,
0.517,12.83,8.21,-15.83,2.79,-0.39,1.66,
0.517,11.62,7.73,-16.65,2.79,-0.39,1.66,
0.518,11.62,7.73,-16.65,2.26,-0.21,1.35,
0.518,11.62,7.73,-16.65,1.65,0.04,1.08,
0.518,10.03,7.19,-16.28,1.65,0.04,1.08,
0.521,10.03,7.19,-16.28,1.01,0.33,0.87,
0.521,7.83,6.60,-15.07,1.01,0.33,0.87,
0.532,7.83,6.60,-15.07,0.41,0.62,0.73,
0.532,5.53,5.98,-12.92,0.41,0.62,0.73,
0.533,5.53,5.98,-12.92,-0.10,0.83,0.67,
0.533,3.62,5.27,-10.26,-0.10,0.83,0.67,
0.536,2.37,4.55,-7.55,-0.10,0.83,0.67,
0.536,2.37,4.55,-7.55,-0.48,0.93,0.67,
0.552,2.37,4.55,-7.55,-0.72,0.90,0.70,
0.553,1.62,3.90,-5.22,-0.72,0.90,0.70,
0.553,1.62,3.90,-5.22,-0.83,0.72,0.75,
0.554,1.31,3.12,-3.27,-0.83,0.72,0.75,
0.554,1.31,3.12,-3.27,-0.81,0.45,0.80,
0.554,1.33,2.43,-1.81,-0.81,0.45,0.80,
0.555,1.33,2.43,-1.81,-0.72,0.16,0.84,
0.556,1.93,2.24,-0.91,-0.72,0.16,0.84,
0.566,3.53,2.37,-0.95,-0.72,0.16,0.84,
0.567,3.53,2.37,-0.95,-0.59,-0.14,0.85,
0.567,5.41,2.59,-1.70,-0.59,-0.14,0.85,
0.568,5.41,2.59,-1.70,-0.47,-0.41,0.81,
0.57,7.02,2.76,-2.83,-0.47,-0.41,0.81,
0.57,7.02,2.76,-2.83,-0.42,-0.59,0.67,
0.575,8.07,2.76,-3.46,-0.42,-0.59,0.67,
0.576,8.07,2.76,-3.46,-0.46,-0.66,0.45,
0.579,8.66,2.56,-3.12,-0.46,-0.66,0.45,
0.579,8.66,2.56,-3.12,-0.58,-0.62,0.16,
0.584,8.66,2.56,-3.12,-0.71,-0.50,-0.18,
0.585,8.79,2.19,-1.78,-0.71,-0.50,-0.18,
0.589,8.48,1.68,0.23,-0.71,-0.50,-0.18,
0.589,8.48,1.68,0.23,-0.79,-0.36,-0.54,
0.599,8.48,1.68,0.23,-0.78,-0.26,-0.90,
0.6,8.03,0.89,2.38,-0.78,-0.26,-0.90,
0.6,8.03,0.89,2.38,-0.65,-0.24,-1.26,
0.601,7.31,0.09,4.20,-0.65,-0.24,-1.26,
0.642,7.31,0.09,4.20,-0.42,-0.28,-1.61,
0.643,6.21,-0.68,5.63,-0.42,-0.28,-1.61,
0.643,6.21,-0.68,5.63,-0.12,-0.35,-1.92,
0.643,4.93,-1.39,6.64,-0.12,-0.35,-1.92,
0.644,4.93,-1.39,6.64,0.22,-0.46,-2.20,
0.644,3.66,-2.22,7.30,0.22,-0.46,-2.20,
0.644,2.89,-3.07,7.09,0.22,-0.46,-2.20,
0.645,2.89,-3.07,7.09,0.60,-0.60,-2.43,
0.645,2.35,-3.76,5.55,0.60,-0.60,-2.43,
0.646,2.35,-3.76,5.55,0.96,-0.70,-2.60,
0.646,2.35,-3.76,5.55,1.21,-0.70,-2.71,
0.646,1.51,-4.22,3.14,1.21,-0.70,-2.71,
0.647,1.51,-4.22,3.14,1.30,-0.59,-2.77,
0.647,0.33,-4.69,0.93,1.30,-0.59,-2.77,
0.647,-0.54,-5.19,-0.30,1.30,-0.59,-2.77,
0.648,-0.54,-5.19,-0.30,1.24,-0.40,-2.75,
0.648,-1.19,-5.69,-0.62,1.24,-0.40,-2.75,
0.649,-1.19,-5.69,-0.62,1.10,-0.24,-2.67,
0.649,-1.19,-5.69,-0.62,0.97,-0.15,-2.52,
0.649,-1.97,-6.20,-0.31,0.97,-0.15,-2.52,
0.652,-3.32,-6.52,-0.05,0.97,-0.15,-2.52,
0.653,-3.32,-6.52,-0.05,0.87,-0.14,-2.31,
0.657,-3.32,-6.52,-0.05,0.78,-0.17,-2.02,
0.657,-5.44,-6.33,0.33,0.78,-0.17,-2.02,
0.662,-5.44,-6.33,0.33,0.70,-0.24,-1.64,
0.663,-7.77,-6.07,0.89,0.70,-0.24,-1.64,
0.667,-7.77,-6.07,0.89,0.60,-0.32,-1.14,
0.668,-10.16,-6.19,1.61,0.60,-0.32,-1.14,
0.672,-10.16,-6.19,1.61,0.49,-0.34,-0.51,
0.672,-12.36,-6.32,2.48,0.49,-0.34,-0.51,
0.682,-12.36,-6.32,2.48,0.37,-0.23,0.26,
0.682,-14.38,-6.04,3.03,0.37,-0.23,0.26,
0.683,-16.12,-5.20,2.87,0.37,-0.23,0.26,
0.683,-16.12,-5.20,2.87,0.24,0.02,1.15,
0.686,-16.12,-5.20,2.87,0.08,0.35,2.14,
0.687,-17.60,-3.85,2.02,0.08,0.35,2.14,
0.705,-17.60,-3.85,2.02,-0.11,0.70,3.22,
0.706,-18.64,-2.73,1.56,-0.11,0.70,3.22,
0.706,-18.64,-2.73,1.56,-0.26,0.93,4.39,
0.707,-17.86,-1.43,0.91,-0.26,0.93,4.39,
0.707,-14.45,-0.17,-0.16,-0.26,0.93,4.39,
0.708,-14.45,-0.17,-0.16,-0.35,0.95,5.59,
0.708,-14.45,-0.17,-0.16,-0.37,0.73,6.70,
0.709,-8.62,1.15,-1.82,-0.37,0.73,6.70,
0.717,-8.62,1.15,-1.82,-0.39,0.39,7.61,
0.718,-0.74,2.29,-4.59,-0.39,0.39,7.61,
0.718,7.69,3.50,-7.54,-0.39,0.39,7.61,
0.719,7.69,3.50,-7.54,-0.45,0.09,8.24,
0.72,7.69,3.50,-7.54,-0.61,-0.10,8.51,
0.721,15.34,4.89,-8.77,-0.61,-0.10,8.51,
0.745,21.23,6.90,-8.23,-0.61,-0.10,8.51,
0.746,21.23,6.90,-8.23,-0.77,-0.24,8.40,
0.747,21.23,6.90,-8.23,-0.86,-0.37,7.97,
0.747,25.01,9.43,-7.33,-0.86,-0.37,7.97,
0.748,25.01,9.43,-7.33,-0.88,-0.41,7.32,
0.748,26.37,11.72,-6.65,-0.88,-0.41,7.32,
0.749,26.37,11.72,-6.65,-0.84,-0.33,6.48,
0.75,25.50,13.84,-4.20,-0.84,-0.33,6.48,
0.75,23.21,15.54,-0.83,-0.84,-0.33,6.48,
0.751,23.21,15.54,-0.83,-0.69,-0.27,5.54,
0.752,23.21,15.54,-0.83,-0.34,-0.32,4.60,
0.752,19.42,16.19,0.83,-0.34,-0.32,4.60,
0.771,19.42,16.19,0.83,0.15,-0.48,3.75,
0.772,13.56,16.09,0.37,0.15,-0.48,3.75,
0.772,7.10,15.93,-1.56,0.15,-0.48,3.75,
0.773,7.10,15.93,-1.56,0.65,-0.68,3.13,
0.773,1.49,15.44,-4.81,0.65,-0.68,3.13,
0.774,1.49,15.44,-4.81,1.06,-0.91,2.79,
0.774,-1.77,14.65,-9.61,1.06,-0.91,2.79,
0.776,-1.77,14.65,-9.61,1.30,-1.11,2.74,
0.776,-1.77,14.65,-9.61,1.26,-1.23,2.90,
0.777,-3.73,14.27,-14.91,1.26,-1.23,2.90,
0.787,-3.73,14.27,-14.91,0.91,-1.21,3.21,
0.787,-4.49,14.10,-18.77,0.91,-1.21,3.21,
0.788,-4.49,14.10,-18.77,0.31,-1.10,3.63,
0.789,-3.61,14.15,-21.06,0.31,-1.10,3.63,
0.789,-3.61,14.15,-21.06,-0.44,-0.96,4.10,
0.789,0.04,14.22,-22.28,-0.44,-0.96,4.10,
0.816,4.74,14.76,-21.35,-0.44,-0.96,4.10,
0.817,4.74,14.76,-21.35,-1.25,-0.88,4.47,
0.818,4.74,14.76,-21.35,-2.00,-0.94,4.64,
0.818,9.58,15.53,-17.86,-2.00,-0.94,4.64,
0.818,9.58,15.53,-17.86,-2.58,-1.13,4.58,
0.819,13.63,15.90,-12.94,-2.58,-1.13,4.58,
0.819,13.63,15.90,-12.94,-2.92,-1.38,4.35,
0.82,16.45,16.30,-7.20,-2.92,-1.38,4.35,
0.82,19.12,16.88,-1.97,-2.92,-1.38,4.35,
0.821,19.12,16.88,-1.97,-3.01,-1.61,4.01,
0.821,20.29,19.37,2.98,-3.01,-1.61,4.01,
0.822,20.29,19.37,2.98,-2.91,-1.78,3.53,
0.823,20.29,19.37,2.98,-2.67,-1.77,2.93,
0.823,14.27,24.56,9.18,-2.67,-1.77,2.93,
0.832,-1.01,29.94,15.41,-2.67,-1.77,2.93,
0.833,-1.01,29.94,15.41,-2.28,-1.55,2.51,
0.833,-1.01,29.94,15.41,-1.70,-1.02,2.60,
0.834,-0.04,29.93,23.45,-1.70,-1.02,2.60,
0.837,-0.04,29.93,23.45,-0.70,-0.34,2.65,
0.838,18.04,29.91,25.37,-0.70,-0.34,2.65,
0.854,18.04,29.91,25.37,0.64,0.14,1.84,
0.855,28.98,29.88,20.23,0.64,0.14,1.84,
0.887,32.36,29.83,7.78,0.64,0.14,1.84,
0.887,32.36,29.83,7.78,1.95,0.62,0.46,
0.888,25.33,29.77,-5.87,1.95,0.62,0.46,
0.888,25.33,29.77,-5.87,2.77,0.87,-0.91,
0.889,25.33,29.77,-5.87,2.88,0.91,-1.84,
0.889,12.63,29.71,-13.99,2.88,0.91,-1.84,
0.89,12.63,29.71,-13.99,2.34,1.23,-2.13,
0.89,-2.83,29.65,-7.72,2.34,1.23,-2.13,
0.891,-2.83,29.65,-7.72,1.81,1.90,-1.70,
0.891,-21.83,29.59,13.85,1.81,1.90,-1.70,
0.892,-21.83,29.59,13.85,2.39,3.18,-0.54,
0.892,-19.79,29.54,19.18,2.39,3.18,-0.54,
0.893,7.43,18.56,-9.22,2.39,3.18,-0.54,
0.893,7.43,18.56,-9.22,3.87,4.28,0.60,
0.894,19.41,7.20,-39.58,3.87,4.28,0.60,
0.894,19.41,7.20,-39.58,4.55,3.78,0.73,
0.895,19.41,7.20,-39.58,3.39,2.56,0.24,
0.895,19.06,0.12,-39.38,3.39,2.56,0.24,
0.896,16.45,-8.21,-39.31,3.39,2.56,0.24,
0.896,16.45,-8.21,-39.31,0.60,1.98,-0.17,
0.897,12.23,-13.61,-39.39,0.60,1.98,-0.17,
0.897,12.23,-13.61,-39.39,-2.45,2.20,-0.44,
0.901,12.23,-13.61,-39.39,-4.35,2.57,-0.73,
0.902,2.61,-15.81,-7.20,-4.35,2.57,-0.73,
0.906,2.61,-15.81,-7.20,-4.60,2.49,-0.83,
0.907,-6.21,-18.65,16.73,-4.60,2.49,-0.83,
0.915,-11.55,-20.04,26.15,-4.60,2.49,-0.83,
0.916,-11.55,-20.04,26.15,-3.62,2.02,-0.61,
0.917,-11.55,-20.04,26.15,-2.22,1.55,-0.28,
0.917,-15.22,-18.78,27.52,-2.22,1.55,-0.28,
0.924,-15.22,-18.78,27.52,-0.92,1.42,0.10,
0.924,-17.26,-16.40,21.72,-0.92,1.42,0.10,
0.925,-17.26,-16.40,21.72,-0.01,1.49,0.53,
0.926,-18.01,-14.75,10.38,-0.01,1.49,0.53,
0.941,-18.01,-14.75,10.38,0.28,1.58,1.01,
0.942,-19.07,-13.77,-2.21,0.28,1.58,1.01,
0.943,-20.61,-12.44,-10.49,0.28,1.58,1.01,
0.943,-20.61,-12.44,-10.49,-0.08,1.76,1.65,
0.944,-19.95,-10.97,-11.01,-0.08,1.76,1.65,
0.944,-19.95,-10.97,-11.01,-0.86,2.11,2.48,
0.963,-19.95,-10.97,-11.01,-1.63,2.53,3.38,
0.965,-18.06,-8.87,-6.09,-1.63,2.53,3.38,
0.965,-14.46,-5.73,-1.50,-1.63,2.53,3.38,
0.966,-14.46,-5.73,-1.50,-2.06,2.90,4.23,
0.966,-14.46,-5.73,-1.50,-2.13,3.14,4.92,
0.966,-8.90,-0.78,-2.00,-2.13,3.14,4.92,
0.967,-8.90,-0.78,-2.00,-2.14,3.33,5.34,
0.967,-3.23,3.68,-6.23,-2.14,3.33,5.34,
0.967,-3.23,3.68,-6.23,-2.36,3.55,5.46,
0.968,0.52,6.62,-9.54,-2.36,3.55,5.46,
0.969,0.52,6.62,-9.54,-2.78,3.74,5.39,
0.97,2.05,7.85,-10.29,-2.78,3.74,5.39,
0.974,2.05,7.85,-10.29,-3.23,3.71,5.28,
0.975,2.11,7.37,-11.01,-3.23,3.71,5.28,
0.983,2.31,6.48,-12.44,-3.23,3.71,5.28,
0.984,2.31,6.48,-12.44,-3.66,3.45,5.23,
0.984,2.31,6.48,-12.44,-4.13,3.05,5.22,
0.985,3.66,5.03,-12.12,-4.13,3.05,5.22,
0.989,5.27,2.22,-10.07,-4.13,3.05,5.22,
0.989,5.27,2.22,-10.07,-4.58,2.63,5.15,
1.005,5.27,2.22,-10.07,-4.91,2.29,5.02,
1.006,6.68,-0.52,-7.77,-4.91,2.29,5.02,
1.006,6.68,-0.52,-7.77,-5.14,2.04,4.82,
1.007,8.96,-2.25,-3.99,-5.14,2.04,4.82,
1.007,9.58,-2.74,1.38,-5.14,2.04,4.82,
1.008,9.58,-2.74,1.38,-5.24,1.81,4.50,
1.008,7.90,-3.09,7.20,-5.24,1.81,4.50,
1.014,7.90,-3.09,7.20,-5.14,1.62,4.12,
1.015,6.70,-4.03,11.14,-5.14,1.62,4.12,
1.015,6.70,-4.03,11.14,-4.85,1.52,3.81,
1.018,5.40,-4.45,12.57,-4.85,1.52,3.81,
1.019,5.40,-4.45,12.57,-4.45,1.59,3.59,
1.023,3.26,-3.70,12.90,-4.45,1.59,3.59,
1.023,3.26,-3.70,12.90,-4.06,1.85,3.44,
1.031,3.26,-3.70,12.90,-3.73,2.22,3.36,
1.032,1.66,-2.99,12.41,-3.73,2.22,3.36,
1.032,1.66,-2.99,12.41,-3.47,2.60,3.33,
1.033,0.50,-3.46,10.62,-3.47,2.60,3.33,
1.037,-0.99,-4.54,7.96,-3.47,2.60,3.33,
1.038,-0.99,-4.54,7.96,-3.34,2.99,3.36,
1.053,-2.40,-5.83,4.91,-3.34,2.99,3.36,
1.054,-2.40,-5.83,4.91,-3.40,3.46,3.46,
1.054,-2.40,-5.83,4.91,-3.67,4.04,3.65,
1.055,-3.98,-6.85,2.11,-3.67,4.04,3.65,
1.055,-3.98,-6.85,2.11,-4.15,4.70,3.91,
1.055,-4.60,-7.42,0.23,-4.15,4.70,3.91,
1.057,-4.60,-7.42,0.23,-4.75,5.39,4.18,
1.058,-3.77,-8.88,-0.18,-4.75,5.39,4.18,
1.062,-3.77,-8.88,-0.18,-5.39,6.10,4.34,
1.063,-3.78,-10.61,1.02,-5.39,6.10,4.34,
1.067,-3.78,-10.61,1.02,-5.91,6.76,4.42,
1.068,-5.42,-11.67,2.97,-5.91,6.76,4.42,
1.072,-5.42,-11.67,2.97,-6.25,7.23,4.56,
1.072,-7.65,-11.96,4.92,-6.25,7.23,4.56,
1.078,-7.65,-11.96,4.92,-6.39,7.38,4.82,
1.079,-9.61,-11.10,7.22,-6.39,7.38,4.82,
1.082,-8.93,-10.23,9.36,-6.39,7.38,4.82,
1.082,-8.93,-10.23,9.36,-6.31,7.23,5.19,
1.087,-6.39,-9.16,11.11,-6.31,7.23,5.19,
1.087,-6.39,-9.16,11.11,-5.99,6.77,5.55,
1.13,-6.39,-9.16,11.11,-5.47,5.98,5.83,
1.13,-2.52,-7.45,12.65,-5.47,5.98,5.83,
1.131,1.94,-5.66,13.11,-5.47,5.98,5.83,
1.132,1.94,-5.66,13.11,-4.78,4.88,5.93,
1.132,1.94,-5.66,13.11,-3.98,3.66,5.83,
1.133,5.29,-4.42,12.57,-3.98,3.66,5.83,
1.133,6.96,-3.61,11.80,-3.98,3.66,5.83,
1.134,6.96,-3.61,11.80,-3.20,2.57,5.57,
1.135,6.96,-3.61,11.80,-2.47,1.74,5.26,
1.135,7.90,-2.94,10.65,-2.47,1.74,5.26,
1.136,8.05,-2.34,9.13,-2.47,1.74,5.26,
1.137,8.05,-2.34,9.13,-1.87,1.16,4.95,
1.137,7.56,-2.21,7.48,-1.87,1.16,4.95,
1.138,7.56,-2.21,7.48,-1.44,0.88,4.66,
1.138,7.56,-2.21,7.48,-1.19,0.91,4.43,
1.139,6.65,-2.13,6.56,-1.19,0.91,4.43,
1.139,6.65,-2.13,6.56,-1.08,1.19,4.27,
1.14,5.91,-1.58,6.44,-1.08,1.19,4.27,
1.14,5.91,-1.58,6.44,-1.04,1.70,4.16,
1.14,5.58,-0.77,6.81,-1.04,1.70,4.16,
1.141,5.46,-0.11,6.67,-1.04,1.70,4.16,
1.141,5.46,-0.11,6.67,-1.03,2.36,4.08,
1.145,5.46,-0.11,6.67,-1.03,3.04,4.00,
1.145,4.64,0.15,6.15,-1.03,3.04,4.00,
1.15,4.64,0.15,6.15,-1.04,3.63,3.96,
1.15,3.37,0.57,5.71,-1.04,3.63,3.96,
1.155,3.37,0.57,5.71,-1.05,4.12,4.00,
1.155,2.67,1.31,5.46,-1.05,4.12,4.00,
1.168,3.14,2.24,5.32,-1.05,4.12,4.00,
1.169,3.14,2.24,5.32,-1.05,4.48,4.07,
1.169,3.14,2.24,5.32,-1.04,4.73,4.11,
1.169,4.24,3.01,5.11,-1.04,4.73,4.11,
1.17,5.29,3.60,5.02,-1.04,4.73,4.11,
1.171,5.29,3.60,5.02,-1.02,4.93,4.07,
1.174,5.29,3.60,5.02,-1.00,5.11,3.93,
1.174,3.80,4.63,6.37,-1.00,5.11,3.93,
1.2,4.56,4.78,5.84,-1.00,5.11,3.93,
1.201,4.56,4.78,5.84,-0.90,5.26,3.77,
1.201,5.24,4.78,4.77,-0.90,5.26,3.77,
1.201,5.24,4.78,4.77,-0.79,5.35,3.57,
1.202,5.24,4.78,4.77,-0.68,5.33,3.29,
1.202,5.48,4.73,3.24,-0.68,5.33,3.29,
1.202,5.68,4.64,1.31,-0.68,5.33,3.29,
1.202,5.68,4.64,1.31,-0.56,5.16,2.94,
1.203,5.78,4.22,-0.85,-0.56,5.16,2.94,
1.203,5.78,4.22,-0.85,-0.46,4.81,2.53,
1.203,5.78,4.22,-0.85,-0.38,4.33,2.11,
1.204,5.38,3.39,-3.02,-0.38,4.33,2.11,
1.208,4.39,2.48,-4.78,-0.38,4.33,2.11,
1.209,4.39,2.48,-4.78,-0.34,3.77,1.73,
1.213,3.01,1.53,-6.21,-0.34,3.77,1.73,
1.214,3.01,1.53,-6.21,-0.33,3.23,1.43,
1.218,1.19,0.71,-7.19,-0.33,3.23,1.43,
1.218,1.19,0.71,-7.19,-0.35,2.72,1.23,
1.223,-0.74,0.14,-7.35,-0.35,2.72,1.23,
1.223,-0.74,0.14,-7.35,-0.41,2.21,1.11,
1.228,-0.74,0.14,-7.35,-0.50,1.71,1.06,
1.228,-2.28,-0.33,-6.90,-0.50,1.71,1.06,
1.233,-2.28,-0.33,-6.90,-0.59,1.28,1.10,
1.233,-3.16,-0.79,-6.25,-0.59,1.28,1.10,
1.237,-3.16,-0.79,-6.25,-0.68,0.92,1.20,
1.238,-3.71,-1.56,-4.31,-0.68,0.92,1.20,
1.248,-3.71,-1.56,-4.31,-0.69,0.81,1.36,
1.249,-9.09,-1.90,6.24,-0.69,0.81,1.36,
1.25,-9.09,-1.90,6.24,-0.45,0.84,1.68,
1.25,-4.97,-2.21,-0.57,-0.45,0.84,1.68,
1.252,-1.61,-2.14,-3.61,-0.45,0.84,1.68,
1.252,-1.61,-2.14,-3.61,-0.48,0.55,1.98,
1.257,-0.69,-2.81,-4.13,-0.48,0.55,1.98,
1.258,-0.69,-2.81,-4.13,-0.69,0.75,2.13,
1.278,-0.69,-2.81,-4.13,-1.01,1.24,2.22,
1.279,-0.24,-3.48,-3.59,-1.01,1.24,2.22,
1.279,1.15,-3.44,-2.61,-1.01,1.24,2.22,
1.28,1.15,-3.44,-2.61,-1.40,1.71,2.29,
1.28,3.09,-2.94,-1.40,-1.40,1.71,2.29,
1.281,3.09,-2.94,-1.40,-1.78,2.15,2.32,
1.281,3.09,-2.94,-1.40,-2.11,2.59,2.28,
1.282,4.42,-2.43,0.10,-2.11,2.59,2.28,
1.282,4.42,-2.43,0.10,-2.37,3.01,2.19,
1.282,4.96,-2.10,1.94,-2.37,3.01,2.19,
1.286,5.56,-1.74,3.84,-2.37,3.01,2.19,
1.287,5.56,-1.74,3.84,-2.52,3.33,2.08,
1.291,6.19,-1.19,5.88,-2.52,3.33,2.08,
1.292,6.19,-1.19,5.88,-2.56,3.54,1.95,
1.296,6.70,-0.57,7.79,-2.56,3.54,1.95,
1.297,6.70,-0.57,7.79,-2.46,3.59,1.77,
1.301,6.89,0.13,9.24,-2.46,3.59,1.77,
1.302,6.89,0.13,9.24,-2.23,3.51,1.55,
1.306,6.52,0.81,10.23,-2.23,3.51,1.55,
1.306,6.52,0.81,10.23,-1.89,3.32,1.31,
1.31,5.97,1.51,10.79,-1.89,3.32,1.31,
1.312,5.97,1.51,10.79,-1.46,3.05,1.06,
1.316,5.98,2.12,10.74,-1.46,3.05,1.06,
1.316,5.98,2.12,10.74,-0.98,2.76,0.84,
1.321,6.35,2.44,9.95,-0.98,2.76,0.84,
1.321,6.35,2.44,9.95,-0.47,2.47,0.62,
1.325,6.61,2.62,8.53,-0.47,2.47,0.62,
1.326,6.61,2.62,8.53,0.01,2.19,0.36,
1.331,6.04,2.70,6.63,0.01,2.19,0.36,
1.332,6.04,2.70,6.63,0.44,1.93,0.06,
1.372,6.04,2.70,6.63,0.78,1.70,-0.24,
1.373,4.92,2.59,4.56,0.78,1.70,-0.24,
1.373,4.92,2.59,4.56,1.02,1.52,-0.48,
1.374,3.57,2.21,2.41,1.02,1.52,-0.48,
1.374,2.15,1.53,0.40,1.02,1.52,-0.48,
1.375,2.15,1.53,0.40,1.15,1.39,-0.66,
1.376,0.45,0.68,-1.30,1.15,1.39,-0.66,
1.376,0.45,0.68,-1.30,1.19,1.29,-0.79,
1.377,0.45,0.68,-1.30,1.14,1.23,-0.83,
1.377,-1.45,-0.06,-2.74,1.14,1.23,-0.83,
1.378,-3.32,-0.57,-3.76,1.14,1.23,-0.83,
1.378,-3.32,-0.57,-3.76,1.04,1.21,-0.79,
1.379,-5.10,-0.95,-4.47,1.04,1.21,-0.79,
1.379,-5.10,-0.95,-4.47,0.88,1.25,-0.69,
1.38,-5.10,-0.95,-4.47,0.69,1.35,-0.53,
1.38,-6.80,-1.20,-4.97,0.69,1.35,-0.53,
1.381,-6.80,-1.20,-4.97,0.50,1.45,-0.30,
1.381,-8.09,-1.36,-5.40,0.50,1.45,-0.30,
1.382,-8.73,-1.41,-5.69,0.50,1.45,-0.30,
1.382,-8.73,-1.41,-5.69,0.30,1.52,-0.03,
1.391,-8.78,-1.46,-5.90,0.30,1.52,-0.03,
1.392,-8.78,-1.46,-5.90,0.09,1.56,0.27,
1.393,-8.44,-1.50,-5.97,0.09,1.56,0.27,
1.393,-8.44,-1.50,-5.97,-0.13,1.56,0.56,
1.394,-7.89,-1.63,-6.06,-0.13,1.56,0.56,
1.394,-7.89,-1.63,-6.06,-0.35,1.53,0.84,
1.398,-7.89,-1.63,-6.06,-0.58,1.49,1.08,
1.401,-6.98,-1.74,-6.13,-0.58,1.49,1.08,
1.404,-6.98,-1.74,-6.13,-0.80,1.46,1.29,
1.405,-5.68,-1.86,-5.97,-0.80,1.46,1.29,
1.408,-5.68,-1.86,-5.97,-1.02,1.42,1.44,
1.409,-3.86,-1.73,-5.44,-1.02,1.42,1.44,
1.42,-3.86,-1.73,-5.44,-1.21,1.35,1.51,
1.42,-1.98,-1.45,-4.51,-1.21,1.35,1.51,
1.421,-1.98,-1.45,-4.51,-1.35,1.26,1.49,
1.421,-0.22,-1.14,-3.29,-1.35,1.26,1.49,
1.423,1.25,-0.77,-1.86,-1.35,1.26,1.49,
1.423,1.25,-0.77,-1.86,-1.42,1.14,1.42,
1.431,1.25,-0.77,-1.86,-1.42,0.99,1.29,
1.432,2.40,-0.38,-0.20,-1.42,0.99,1.29,
1.433,3.25,0.17,1.58,-1.42,0.99,1.29,
1.433,3.25,0.17,1.58,-1.34,0.81,1.13,
1.438,3.74,0.78,3.18,-1.34,0.81,1.13,
1.438,3.74,0.78,3.18,-1.18,0.60,0.96,
1.442,4.02,1.41,4.44,-1.18,0.60,0.96,
1.443,4.02,1.41,4.44,-0.94,0.35,0.78,
1.447,4.21,1.82,5.19,-0.94,0.35,0.78,
1.448,4.21,1.82,5.19,-0.66,0.08,0.62,
1.452,4.21,1.82,5.19,-0.35,-0.16,0.47,
1.453,4.37,2.12,5.29,-0.35,-0.16,0.47,
1.457,4.37,2.12,5.29,-0.07,-0.36,0.33,
1.458,4.43,2.34,4.97,-0.07,-0.36,0.33,
1.471,4.43,2.34,4.97,0.17,-0.48,0.19,
1.472,4.44,2.48,4.24,0.17,-0.48,0.19,
1.473,4.44,2.48,4.24,0.33,-0.53,0.05,
1.473,4.47,2.44,3.34,0.33,-0.53,0.05,
1.474,4.45,2.26,2.42,0.33,-0.53,0.05,
1.474,4.45,2.26,2.42,0.41,-0.50,-0.09,
1.478,4.37,1.94,1.65,0.41,-0.50,-0.09,
1.479,4.37,1.94,1.65,0.43,-0.38,-0.23,
1.481,4.37,1.94,1.65,0.39,-0.19,-0.37,
1.482,4.19,1.64,1.07,0.39,-0.19,-0.37,
1.486,4.19,1.64,1.07,0.30,0.05,-0.49,
1.487,3.87,1.40,0.65,0.30,0.05,-0.49,
1.491,3.87,1.40,0.65,0.20,0.30,-0.62,
1.492,3.40,1.27,0.37,0.20,0.30,-0.62,
1.507,2.75,0.98,0.17,0.20,0.30,-0.62,
1.508,2.75,0.98,0.17,0.09,0.58,-0.73,
1.509,1.98,0.63,0.05,0.09,0.58,-0.73,
1.509,1.98,0.63,0.05,-0.01,0.86,-0.83,
1.51,1.35,0.60,0.17,-0.01,0.86,-0.83,
1.51,1.35,0.60,0.17,-0.10,1.08,-0.90,
1.511,1.35,0.60,0.17,-0.16,1.22,-0.93,
1.512,0.18,-0.03,0.49,-0.16,1.22,-0.93,
1.516,0.18,-0.03,0.49,-0.16,1.27,-0.91,
1.517,-0.83,-0.56,-0.03,-0.16,1.27,-0.91,
1.521,-0.83,-0.56,-0.03,-0.15,1.21,-0.86,
1.521,-1.64,-0.70,-1.03,-0.15,1.21,-0.86,
1.525,-1.64,-0.70,-1.03,-0.16,1.10,-0.80,
1.526,-2.38,-0.77,-1.87,-0.16,1.10,-0.80,
1.53,-2.38,-0.77,-1.87,-0.20,0.97,-0.71,
1.531,-3.30,-1.19,-2.49,-0.20,0.97,-0.71,
1.535,-3.30,-1.19,-2.49,-0.27,0.87,-0.59,
1.535,-3.20,-1.43,-3.56,-0.27,0.87,-0.59,
1.54,-3.20,-1.43,-3.56,-0.40,0.81,-0.49,
1.54,-3.07,-1.85,-4.52,-0.40,0.81,-0.49,
1.545,-3.07,-1.85,-4.52,-0.58,0.83,-0.43,
1.545,-3.12,-2.08,-5.18,-0.58,0.83,-0.43,
1.55,-3.38,-2.11,-5.25,-0.58,0.83,-0.43,
1.55,-3.38,-2.11,-5.25,-0.78,0.90,-0.35,
1.554,-3.61,-2.12,-4.96,-0.78,0.90,-0.35,
1.555,-3.61,-2.12,-4.96,-0.99,0.99,-0.25,
1.559,-3.92,-2.02,-4.30,-0.99,0.99,-0.25,
1.56,-3.92,-2.02,-4.30,-1.17,1.05,-0.15,
1.567,-4.32,-2.00,-3.33,-1.17,1.05,-0.15,
1.568,-4.32,-2.00,-3.33,-1.31,1.05,-0.04,
1.569,-4.32,-2.00,-3.33,-1.38,1.02,0.10,
1.569,-4.27,-1.79,-2.34,-1.38,1.02,0.10,
1.575,-4.27,-1.79,-2.34,-1.40,0.94,0.23,
1.576,-3.81,-1.50,-1.55,-1.40,0.94,0.23,
1.61,-3.07,-1.18,-0.76,-1.40,0.94,0.23,
1.61,-3.07,-1.18,-0.76,-1.38,0.81,0.34,
1.611,-2.47,-0.79,0.21,-1.38,0.81,0.34,
1.611,-2.47,-0.79,0.21,-1.32,0.67,0.42,
1.612,-2.47,-0.79,0.21,-1.23,0.50,0.48,
1.613,-1.95,-0.49,1.17,-1.23,0.50,0.48,
1.613,-1.64,-0.22,2.13,-1.23,0.50,0.48,
1.614,-1.64,-0.22,2.13,-1.10,0.32,0.52,
1.614,-1.64,-0.22,2.13,-0.94,0.12,0.54,
1.615,-1.31,-0.02,3.06,-0.94,0.12,0.54,
1.615,-1.31,-0.02,3.06,-0.75,-0.07,0.56,
1.616,-0.69,0.13,3.91,-0.75,-0.07,0.56,
1.616,0.24,0.22,4.71,-0.75,-0.07,0.56,
1.617,0.24,0.22,4.71,-0.54,-0.25,0.57,
1.617,0.24,0.22,4.71,-0.31,-0.40,0.55,
1.618,1.15,0.26,5.26,-0.31,-0.40,0.55,
1.618,1.76,0.33,5.42,-0.31,-0.40,0.55,
1.619,1.76,0.33,5.42,-0.08,-0.50,0.49,
1.623,1.76,0.33,5.42,0.15,-0.56,0.42,
1.624,2.14,0.42,5.17,0.15,-0.56,0.42,
1.628,2.40,0.40,4.63,0.15,-0.56,0.42,
1.629,2.40,0.40,4.63,0.34,-0.57,0.35,
1.632,2.53,0.39,3.98,0.34,-0.57,0.35,
1.633,2.53,0.39,3.98,0.48,-0.51,0.27,
1.637,2.53,0.39,3.98,0.57,-0.37,0.20,
1.638,2.51,0.36,3.32,0.57,-0.37,0.20,
1.642,2.51,0.36,3.32,0.60,-0.17,0.14,
1.643,2.32,0.34,2.79,0.60,-0.17,0.14,
1.647,2.32,0.34,2.79,0.60,0.06,0.08,
1.648,2.03,0.45,2.43,0.60,0.06,0.08,
1.652,1.67,0.57,2.25,0.60,0.06,0.08,
1.652,1.67,0.57,2.25,0.58,0.30,0.04,
1.657,1.43,0.66,2.01,0.58,0.30,0.04,
1.657,1.43,0.66,2.01,0.55,0.53,0.01,
1.661,1.04,0.64,1.66,0.55,0.53,0.01,
1.662,1.04,0.64,1.66,0.53,0.74,-0.02,
1.666,0.58,0.42,1.15,0.53,0.74,-0.02,
1.667,0.58,0.42,1.15,0.52,0.92,-0.04,
1.671,0.58,0.42,1.15,0.52,1.03,-0.04,
1.672,0.07,0.20,0.60,0.52,1.03,-0.04,
1.676,0.07,0.20,0.60,0.53,1.06,-0.02,
1.677,-0.49,0.18,-0.15,0.53,1.06,-0.02,
1.685,-0.49,0.18,-0.15,0.54,1.03,0.01,
1.686,-0.97,0.08,-1.03,0.54,1.03,0.01,
1.687,-0.97,0.08,-1.03,0.54,0.94,0.04,
1.687,-1.24,-0.10,-1.94,0.54,0.94,0.04,
1.692,-1.24,-0.10,-1.94,0.51,0.83,0.09,
1.693,-1.30,-0.27,-2.80,0.51,0.83,0.09,
1.715,-1.30,-0.27,-2.80,0.46,0.71,0.13,
1.716,-1.12,-0.47,-3.48,0.46,0.71,0.13,
1.717,-0.97,-0.70,-4.03,0.46,0.71,0.13,
1.717,-0.97,-0.70,-4.03,0.37,0.58,0.16,
1.717,-0.88,-0.83,-4.45,0.37,0.58,0.16,
1.718,-0.88,-0.83,-4.45,0.27,0.48,0.16,
1.718,-0.88,-0.83,-4.45,0.16,0.40,0.16,
1.719,-0.90,-0.84,-4.60,0.16,0.40,0.16,
1.719,-1.00,-0.77,-4.49,0.16,0.40,0.16,
1.72,-1.00,-0.77,-4.49,0.04,0.33,0.16,
1.721,-1.02,-0.68,-4.05,0.04,0.33,0.16,
1.721,-1.02,-0.68,-4.05,-0.07,0.24,0.18,
1.725,-0.93,-0.63,-3.32,-0.07,0.24,0.18,
1.726,-0.93,-0.63,-3.32,-0.16,0.14,0.21,
1.731,-0.50,-0.59,-2.46,-0.16,0.14,0.21,
1.732,-0.50,-0.59,-2.46,-0.21,0.05,0.26,
1.735,-0.50,-0.59,-2.46,-0.23,-0.05,0.31,
1.736,0.08,-0.60,-1.65,-0.23,-0.05,0.31,
1.74,0.08,-0.60,-1.65,-0.21,-0.17,0.34,
1.74,0.68,-0.66,-0.77,-0.21,-0.17,0.34,
1.745,0.68,-0.66,-0.77,-0.15,-0.32,0.36,
1.746,1.05,-0.71,0.07,-0.15,-0.32,0.36,
1.75,1.34,-0.70,0.88,-0.15,-0.32,0.36,
1.75,1.34,-0.70,0.88,-0.06,-0.52,0.37,
1.754,1.88,-0.48,1.70,-0.06,-0.52,0.37,
1.755,1.88,-0.48,1.70,0.05,-0.75,0.39,
1.76,2.70,-0.12,2.47,0.05,-0.75,0.39,
1.76,2.70,-0.12,2.47,0.19,-1.00,0.39,
1.765,2.70,-0.12,2.47,0.34,-1.24,0.34,
1.765,3.66,0.31,3.03,0.34,-1.24,0.34,
1.769,3.66,0.31,3.03,0.47,-1.41,0.24,
1.77,4.41,0.68,3.41,0.47,-1.41,0.24,
1.774,4.41,0.68,3.41,0.57,-1.46,0.10,
1.774,4.79,0.96,3.71,0.57,-1.46,0.10,
1.786,4.84,1.16,3.94,0.57,-1.46,0.10,
1.787,4.84,1.16,3.94,0.66,-1.43,-0.05,
1.787,4.98,1.23,4.20,0.66,-1.43,-0.05,
1.788,4.98,1.23,4.20,0.72,-1.31,-0.22,
1.789,4.98,1.23,4.20,0.78,-1.15,-0.38,
1.789,4.88,1.25,4.37,0.78,-1.15,-0.38,
1.793,4.88,1.25,4.37,0.85,-0.95,-0.53,
1.794,4.34,1.50,4.24,0.85,-0.95,-0.53,
1.813,4.34,1.50,4.24,0.91,-0.76,-0.67,
1.814,3.19,1.82,3.57,0.91,-0.76,-0.67,
1.814,1.68,2.06,2.42,0.91,-0.76,-0.67,
1.815,1.68,2.06,2.42,0.97,-0.61,-0.77,
1.815,-0.04,2.09,0.87,0.97,-0.61,-0.77,
1.816,-0.04,2.09,0.87,1.00,-0.47,-0.84,
1.816,-1.56,1.73,-0.61,1.00,-0.47,-0.84,
1.817,-1.56,1.73,-0.61,0.98,-0.34,-0.85,
1.818,-2.55,1.10,-1.75,0.98,-0.34,-0.85,
1.818,-2.55,1.10,-1.75,0.93,-0.25,-0.80,
1.849,-3.24,0.35,-2.40,0.93,-0.25,-0.80,
1.85,-3.24,0.35,-2.40,0.86,-0.23,-0.72,
1.85,-3.60,-0.10,-2.49,0.86,-0.23,-0.72,
1.851,-3.60,-0.10,-2.49,0.77,-0.27,-0.60,
1.851,-3.60,-0.10,-2.49,0.70,-0.34,-0.49,
1.852,-3.70,-0.23,-2.16,0.70,-0.34,-0.49,
1.852,-3.47,-0.51,-1.81,0.70,-0.34,-0.49,
1.853,-3.47,-0.51,-1.81,0.67,-0.44,-0.39,
1.853,-3.47,-0.51,-1.81,0.67,-0.55,-0.32,
1.854,-3.24,-0.88,-1.76,0.67,-0.55,-0.32,
1.854,-3.05,-1.20,-1.98,0.67,-0.55,-0.32,
1.855,-3.05,-1.20,-1.98,0.68,-0.65,-0.26,
1.855,-3.05,-1.20,-1.98,0.69,-0.74,-0.23,
1.856,-3.00,-1.30,-2.44,0.69,-0.74,-0.23,
1.857,-3.00,-1.30,-2.44,0.68,-0.83,-0.21,
1.857,-2.96,-1.29,-2.88,0.68,-0.83,-0.21,
1.861,-2.76,-1.41,-3.20,0.68,-0.83,-0.21,
1.862,-2.76,-1.41,-3.20,0.65,-0.87,-0.20,
1.867,-2.41,-1.44,-3.38,0.65,-0.87,-0.20,
1.868,-2.41,-1.44,-3.38,0.59,-0.87,-0.19,
1.871,-2.05,-1.27,-3.36,0.59,-0.87,-0.19,
1.872,-2.05,-1.27,-3.36,0.50,-0.85,-0.19,
1.876,-2.05,-1.27,-3.36,0.38,-0.80,-0.19,
1.877,-1.68,-0.97,-3.22,0.38,-0.80,-0.19,
1.881,-1.68,-0.97,-3.22,0.26,-0.72,-0.19,
1.882,-1.42,-0.80,-2.97,0.26,-0.72,-0.19,
1.886,-1.28,-0.72,-2.47,0.26,-0.72,-0.19,
1.887,-1.28,-0.72,-2.47,0.12,-0.61,-0.20,
1.891,-1.20,-0.61,-1.58,0.12,-0.61,-0.20,
1.891,-1.20,-0.61,-1.58,-0.01,-0.47,-0.19,
1.901,-1.20,-0.61,-1.58,-0.11,-0.33,-0.17,
1.902,-1.23,-0.38,-0.54,-0.11,-0.33,-0.17,
1.902,-1.79,0.06,0.68,-0.11,-0.33,-0.17,
1.902,-1.79,0.06,0.68,-0.19,-0.21,-0.13,
1.905,-1.03,-0.29,1.34,-0.19,-0.21,-0.13,
1.906,-1.03,-0.29,1.34,-0.23,-0.07,-0.07,
1.91,-0.59,-0.24,1.69,-0.23,-0.07,-0.07,
1.911,-0.59,-0.24,1.69,-0.25,0.05,-0.01,
1.924,-0.73,-0.12,2.02,-0.25,0.05,-0.01,
1.925,-0.73,-0.12,2.02,-0.26,0.14,0.03,
1.926,-0.98,0.16,2.40,-0.26,0.14,0.03,
1.926,-0.98,0.16,2.40,-0.25,0.22,0.06,
1.927,-0.98,0.16,2.40,-0.24,0.26,0.11,
1.927,-1.06,0.28,2.82,-0.24,0.26,0.11,
1.936,-0.81,0.17,3.23,-0.24,0.26,0.11,
1.937,-0.81,0.17,3.23,-0.21,0.27,0.18,
1.937,-0.51,-0.02,3.72,-0.21,0.27,0.18,
1.937,-0.51,-0.02,3.72,-0.17,0.29,0.23,
